label,LstartingStim,RstartingStim,LvisualStim,RvisualStim,audioCue,visualCue,probe_loc,thisN,thisTrialN,thisRepN,staircase.thisTrialN,staircase.stepSize,staircase.intensity,trials.thisRepN,trials.thisTrialN,trials.thisN,trials.thisIndex,thisRow.t,notes,piloting,stim offset,continue_resp.keys,continue_resp.rt,continue_resp.duration,fixation.started,fixation.stopped,greenContrast,redContrast,adjusted_contrast.started,adjusted_contrast.stopped,staircase_response.started,staircase_response.stopped,stair_response,probe_response,staircase.response,prevTrial,isRed,isReversal,cumReversal,contrastArray,contrastAverage,start_trial.started,start_trial.stopped,cue.started,cue.stopped,probe.started,probe.stopped,probe_response.started,probe_response.stopped,subjective_response.started,subjective_response.stopped,subj_response,RedContrast,GreenContrast,vividness_response.started,vividness_response.stopped,vivid_response,participant,session,date,expName,expVersion,psychopyVersion,frameRate,expStart,
,,,,,,,,,,,,,,,,,,,,False,0.375,,,,,,,,,,,,,,,,,,,,,,,,,,,,,,,,,,,,,041726nc,001,2026-04-17_14h20.04.204,priming,,2026.1.3,60.01212244847201,2026-04-17 14h20.04.537162 -0700,
,,,,,,,,,,,,,,,,,,,,,,space,42.23216354199394,None,,,,,,,,,,,,,,,,,,,,,,,,,,,,,,,,,,041726nc,001,2026-04-17_14h20.04.204,priming,,2026.1.3,60.01212244847201,2026-04-17 14h20.04.537162 -0700,
,,,,,,,,,,,0,0.2,0.5,,,,,131.75967795800534,,,,,,,131.74361124999996,132.74311583300005,0.5,0.5,132.7489772500121,134.49304650000704,134.49638620800397,138.92719837500772,allgreen,green,0,1000,0,0,0,[],0,,,,,,,,,,,,,,,,,041726nc,001,2026-04-17_14h20.04.204,priming,,2026.1.3,60.01212244847201,2026-04-17 14h20.04.537162 -0700,
,,,,,,,,,,,1,0.1,0.7,,,,,138.94306004101236,,,,,,,138.92744662500627,139.92640491601196,0.30000000000000004,0.7,139.93142720800824,141.67642100001103,141.6799772910017,144.87726441600535,mostlyred,red,1,0,1,1,1,[],0,,,,,,,,,,,,,,,,,041726nc,001,2026-04-17_14h20.04.204,priming,,2026.1.3,60.01212244847201,2026-04-17 14h20.04.537162 -0700,
,,,,,,,,,,,2,0.1,0.6,,,,,144.8929777500016,,,,,,,144.87751429100172,145.8765598750033,0.4,0.6,145.88011408300372,147.62653287500143,147.62951587499992,151.74385216600785,mostlyred,red,1,1,1,0,1,[],0,,,,,,,,,,,,,,,,,041726nc,001,2026-04-17_14h20.04.204,priming,,2026.1.3,60.01212244847201,2026-04-17 14h20.04.537162 -0700,
,,,,,,,,,,,3,0.1,0.5,,,,,151.75966154100024,,,,,,,151.74409737500537,152.74322750000283,0.5,0.5,152.74687379100942,154.4932372500043,154.49610654100252,155.2438367499999,allgreen,green,0,1,0,1,2,[],0,,,,,,,,,,,,,,,,,041726nc,001,2026-04-17_14h20.04.204,priming,,2026.1.3,60.01212244847201,2026-04-17 14h20.04.537162 -0700,
,,,,,,,,,,,4,0.1,0.6,,,,,155.2597824580007,,,,,,,155.24408029101323,156.2432401660044,0.4,0.6,156.24676395801362,157.99325700000918,157.99587737501133,159.01060466600757,mostlygreen,green,0,0,0,0,2,[],0,,,,,,,,,,,,,,,,,041726nc,001,2026-04-17_14h20.04.204,priming,,2026.1.3,60.01212244847201,2026-04-17 14h20.04.537162 -0700,
,,,,,,,,,,,5,0.05,0.7,,,,,159.02645420801127,,,,,,,159.01085004101333,160.009935375012,0.30000000000000004,0.7,160.0135342910071,161.75986241600185,161.76324037500308,163.74392729101237,mostlyred,red,1,0,1,1,3,[],0,,,,,,,,,,,,,,,,,041726nc,001,2026-04-17_14h20.04.204,priming,,2026.1.3,60.01212244847201,2026-04-17 14h20.04.537162 -0700,
,,,,,,,,,,,6,0.05,0.6499999999999999,,,,,163.75978562500677,,,,,,,163.74417187500512,164.74323141601053,0.3500000000000001,0.6499999999999999,164.746947208012,166.49323433300015,166.49674695800059,167.26058266600012,mostlyred,red,1,1,1,0,3,[],0,,,,,,,,,,,,,,,,,041726nc,001,2026-04-17_14h20.04.204,priming,,2026.1.3,60.01212244847201,2026-04-17 14h20.04.537162 -0700,
,,,,,,,,,,,7,0.05,0.5999999999999999,,,,,167.27649529100745,,,,,,,167.2608339580038,168.25989862500865,0.40000000000000013,0.5999999999999999,168.26344220800092,170.0098744160059,170.0123605000117,171.32732479101105,mostlygreen,green,0,1,0,1,4,[],0,,,,,,,,,,,,,,,,,041726nc,001,2026-04-17_14h20.04.204,priming,,2026.1.3,60.01212244847201,2026-04-17 14h20.04.537162 -0700,
,,,,,,,,,,,8,0.025,0.6499999999999999,,,,,171.34311941600754,,,,,,,171.32756566601165,172.32657787500648,0.3500000000000001,0.6499999999999999,172.33011787501164,174.07659487500496,174.0790586660005,175.54430604100344,mostlyred,red,1,0,1,1,5,[],0,,,,,,,,,,,,,,,,,041726nc,001,2026-04-17_14h20.04.204,priming,,2026.1.3,60.01212244847201,2026-04-17 14h20.04.537162 -0700,
,,,,,,,,,,,9,0.025,0.6249999999999999,,,,,175.55974854101078,,,,,,,175.54455170800793,176.54318041600345,0.3750000000000001,0.6249999999999999,176.54675050001242,178.29319312500593,178.2961639999994,180.06050220801262,mostlyred,red,1,1,1,0,5,[],0,,,,,,,,,,,,,,,,,041726nc,001,2026-04-17_14h20.04.204,priming,,2026.1.3,60.01212244847201,2026-04-17 14h20.04.537162 -0700,
,,,,,,,,,,,10,0.025,0.5999999999999999,,,,,180.07641875000263,,,,,,,180.06074479100062,181.05992991600942,0.40000000000000013,0.5999999999999999,181.0635125000117,182.81004095800745,182.81406933300605,183.76069087500218,mostlygreen,green,0,1,0,1,6,[0.5999999999999999],0.5999999999999999,,,,,,,,,,,,,,,,,041726nc,001,2026-04-17_14h20.04.204,priming,,2026.1.3,60.01212244847201,2026-04-17 14h20.04.537162 -0700,
,,,,,,,,,,,11,0.025,0.6249999999999999,,,,,183.77661654099938,,,,,,,183.7609393330058,184.76002845801122,0.3750000000000001,0.6249999999999999,184.7636353750131,186.5100655000133,186.51266808299988,188.46072245801042,mostlyred,red,1,0,1,1,7,"[0.5999999999999999, 0.6249999999999999]",0.6124999999999998,,,,,,,,,,,,,,,,,041726nc,001,2026-04-17_14h20.04.204,priming,,2026.1.3,60.01212244847201,2026-04-17 14h20.04.537162 -0700,
,,,,,,,,,,,12,0.025,0.5999999999999999,,,,,188.47660108300624,,,,,,,188.46097583300434,189.46003575000213,0.40000000000000013,0.5999999999999999,189.46363091601233,191.21005587500986,191.2138917500124,193.07743575000495,mostlyred,red,1,1,1,0,7,"[0.5999999999999999, 0.6249999999999999]",0.6124999999999998,,,,,,,,,,,,,,,,,041726nc,001,2026-04-17_14h20.04.204,priming,,2026.1.3,60.01212244847201,2026-04-17 14h20.04.537162 -0700,
,,,,,,,,,,,13,0.025,0.5749999999999998,,,,,193.0932737080002,,,,,,,193.07769708300475,194.0767788330122,0.42500000000000016,0.5749999999999998,194.08032837499923,195.82671454100637,195.83003183300025,196.8106705829996,mostlyred,red,1,1,1,0,7,"[0.5999999999999999, 0.6249999999999999]",0.6124999999999998,,,,,,,,,,,,,,,,,041726nc,001,2026-04-17_14h20.04.204,priming,,2026.1.3,60.01212244847201,2026-04-17 14h20.04.537162 -0700,
,,,,,,,,,,,14,0.025,0.5499999999999998,,,,,196.8265731660067,,,,,,,196.81091462500626,197.81009016600729,0.4500000000000002,0.5499999999999998,197.81376045801153,199.56009695801185,199.56214675000228,201.2774388329999,mostlygreen,green,0,1,0,1,8,"[0.5999999999999999, 0.6249999999999999, 0.5499999999999998]",0.5916666666666665,,,,,,,,,,,,,,,,,041726nc,001,2026-04-17_14h20.04.204,priming,,2026.1.3,60.01212244847201,2026-04-17 14h20.04.537162 -0700,
,,,,,,,,,,,15,0.025,0.5749999999999998,,,,,201.293258375008,,,,,,,201.2776920410106,202.27667787500832,0.42500000000000016,0.5749999999999998,202.28022150001198,204.02667175000533,204.02890079100325,206.34443233300408,mostlyred,red,1,0,1,1,9,"[0.5999999999999999, 0.6249999999999999, 0.5499999999999998, 0.5749999999999998]",0.5874999999999998,,,,,,,,,,,,,,,,,041726nc,001,2026-04-17_14h20.04.204,priming,,2026.1.3,60.01212244847201,2026-04-17 14h20.04.537162 -0700,
,,,,,,,,,,,16,0.025,0.5499999999999998,,,,,206.35997283300094,,,,,,,206.3446892080101,207.34326545801014,0.4500000000000002,0.5499999999999998,207.34688670800824,209.09345379100705,209.09698562500125,209.77747708300012,mostlygreen,green,0,1,0,1,10,"[0.5999999999999999, 0.6249999999999999, 0.5499999999999998, 0.5749999999999998, 0.5499999999999998]",0.5799999999999998,,,,,,,,,,,,,,,,,041726nc,001,2026-04-17_14h20.04.204,priming,,2026.1.3,60.01212244847201,2026-04-17 14h20.04.537162 -0700,
,,,,,,,,,,,17,0.025,0.5749999999999998,,,,,209.79334033300984,,,,,,,209.7777288750076,210.77670129100443,0.42500000000000016,0.5749999999999998,210.7801725830068,212.5268099160021,212.5290962500003,213.2107781250088,mostlyred,red,1,0,1,1,11,"[0.5999999999999999, 0.6249999999999999, 0.5499999999999998, 0.5749999999999998, 0.5499999999999998, 0.5749999999999998]",0.5791666666666665,,,,,,,,,,,,,,,,,041726nc,001,2026-04-17_14h20.04.204,priming,,2026.1.3,60.01212244847201,2026-04-17 14h20.04.537162 -0700,
,,,,,,,,,,,18,0.025,0.5499999999999998,,,,,213.2267181660136,,,,,,,213.2110306250106,214.2101749160065,0.4500000000000002,0.5499999999999998,214.21367775001272,215.9602060830075,215.9630023750069,217.94419941600063,mostlygreen,green,0,1,0,1,12,"[0.5999999999999999, 0.6249999999999999, 0.5499999999999998, 0.5749999999999998, 0.5499999999999998, 0.5749999999999998, 0.5499999999999998]",0.5749999999999998,,,,,,,,,,,,,,,,,041726nc,001,2026-04-17_14h20.04.204,priming,,2026.1.3,60.01212244847201,2026-04-17 14h20.04.537162 -0700,
,,,,,,,,,,,19,0.025,0.5749999999999998,,,,,217.96003900001233,,,,,,,217.94446833300753,218.9434215000074,0.42500000000000016,0.5749999999999998,218.94716120800877,220.69344641600037,220.69677337500616,221.57763050000358,mostlygreen,green,0,0,0,0,12,"[0.5999999999999999, 0.6249999999999999, 0.5499999999999998, 0.5749999999999998, 0.5499999999999998, 0.5749999999999998, 0.5499999999999998]",0.5749999999999998,,,,,,,,,,,,,,,,,041726nc,001,2026-04-17_14h20.04.204,priming,,2026.1.3,60.01212244847201,2026-04-17 14h20.04.537162 -0700,
,,,,,,,,,,,20,0.025,0.5999999999999999,,,,,221.5934205000085,,,,,,,221.57788379100384,222.57673162501305,0.40000000000000013,0.5999999999999999,222.58033383300062,224.3268610410014,224.32871666600113,225.09418266601278,mostlyred,red,1,0,1,1,13,"[0.5999999999999999, 0.6249999999999999, 0.5499999999999998, 0.5749999999999998, 0.5499999999999998, 0.5749999999999998, 0.5499999999999998, 0.5999999999999999]",0.5781249999999998,,,,,,,,,,,,,,,,,041726nc,001,2026-04-17_14h20.04.204,priming,,2026.1.3,60.01212244847201,2026-04-17 14h20.04.537162 -0700,
,,,,,,,,,,,21,0.025,0.5749999999999998,,,,,225.11003458300547,,,,,,,225.09443354100222,226.09357433300465,0.42500000000000016,0.5749999999999998,226.0972307500051,227.84338983301132,227.8461014580098,230.27744345800602,mostlyred,red,1,1,1,0,13,"[0.5999999999999999, 0.6249999999999999, 0.5499999999999998, 0.5749999999999998, 0.5499999999999998, 0.5749999999999998, 0.5499999999999998, 0.5999999999999999]",0.5781249999999998,,,,,,,,,,,,,,,,,041726nc,001,2026-04-17_14h20.04.204,priming,,2026.1.3,60.01212244847201,2026-04-17 14h20.04.537162 -0700,
,,,,,,,,,,,22,0.025,0.5499999999999998,,,,,230.29336095800682,,,,,,,230.27769416601222,231.27678341600404,0.4500000000000002,0.5499999999999998,231.28036862501176,233.02684237500944,233.02944095800922,233.860917375001,mostlyred,red,1,1,1,0,13,"[0.5999999999999999, 0.6249999999999999, 0.5499999999999998, 0.5749999999999998, 0.5499999999999998, 0.5749999999999998, 0.5499999999999998, 0.5999999999999999]",0.5781249999999998,,,,,,,,,,,,,,,,,041726nc,001,2026-04-17_14h20.04.204,priming,,2026.1.3,60.01212244847201,2026-04-17 14h20.04.537162 -0700,
,,,,,,,,,,,23,0.025,0.5249999999999998,,,,,233.8767721660115,,,,,,,233.86116508301347,234.8602557080012,0.4750000000000002,0.5249999999999998,234.86386733301333,236.61007958301343,236.6134245830035,237.3441642500111,mostlygreen,green,0,1,0,1,14,"[0.5999999999999999, 0.6249999999999999, 0.5499999999999998, 0.5749999999999998, 0.5499999999999998, 0.5749999999999998, 0.5499999999999998, 0.5999999999999999, 0.5249999999999998]",0.572222222222222,,,,,,,,,,,,,,,,,041726nc,001,2026-04-17_14h20.04.204,priming,,2026.1.3,60.01212244847201,2026-04-17 14h20.04.537162 -0700,
,,,,,,,,,,,24,0.025,0.5499999999999998,,,,,237.35997366601077,,,,,,,237.34441950000473,238.34371854100027,0.4500000000000002,0.5499999999999998,238.34726904101262,240.09358516600332,240.09717470800388,241.59427683301328,mostlyred,red,1,0,1,1,15,"[0.5999999999999999, 0.6249999999999999, 0.5499999999999998, 0.5749999999999998, 0.5499999999999998, 0.5749999999999998, 0.5499999999999998, 0.5999999999999999, 0.5249999999999998, 0.5499999999999998]",0.5699999999999997,,,,,,,,,,,,,,,,,041726nc,001,2026-04-17_14h20.04.204,priming,,2026.1.3,60.01212244847201,2026-04-17 14h20.04.537162 -0700,
,,,,,,,,,,,25,0.025,0.5249999999999998,,,,,241.61017195800378,,,,,,,241.59452595800394,242.59362912501092,0.4750000000000002,0.5249999999999998,242.59725154101034,244.34371983300662,244.34759491600562,246.24440070800483,mostlyred,red,1,1,1,0,15,"[0.5999999999999999, 0.6249999999999999, 0.5499999999999998, 0.5749999999999998, 0.5499999999999998, 0.5749999999999998, 0.5499999999999998, 0.5999999999999999, 0.5249999999999998, 0.5499999999999998]",0.5699999999999997,,,,,,,,,,,,,,,,,041726nc,001,2026-04-17_14h20.04.204,priming,,2026.1.3,60.01212244847201,2026-04-17 14h20.04.537162 -0700,
,,,,,,,,,,,26,0.025,0.4999999999999998,,,,,246.26017108300584,,,,,,,246.24464683300175,247.24359466601163,0.5000000000000002,0.4999999999999998,247.24717700001202,248.99368700000923,248.99613387499994,250.79433291600435,mostlygreen,green,0,1,0,1,16,"[0.5999999999999999, 0.6249999999999999, 0.5499999999999998, 0.5749999999999998, 0.5499999999999998, 0.5749999999999998, 0.5499999999999998, 0.5999999999999999, 0.5249999999999998, 0.5499999999999998, 0.4999999999999998]",0.5636363636363634,,,,,,,,,,,,,,,,,041726nc,001,2026-04-17_14h20.04.204,priming,,2026.1.3,60.01212244847201,2026-04-17 14h20.04.537162 -0700,
,,,,,,,,,,,27,0.025,0.5249999999999998,,,,,250.8101584160031,,,,,,,250.79458612500457,251.79355183300504,0.4750000000000002,0.5249999999999998,251.7972790410131,253.54366579100315,253.5465185409994,253.89429879101226,mostlygreen,green,0,0,0,0,16,"[0.5999999999999999, 0.6249999999999999, 0.5499999999999998, 0.5749999999999998, 0.5499999999999998, 0.5749999999999998, 0.5499999999999998, 0.5999999999999999, 0.5249999999999998, 0.5499999999999998, 0.4999999999999998]",0.5636363636363634,,,,,,,,,,,,,,,,,041726nc,001,2026-04-17_14h20.04.204,priming,,2026.1.3,60.01212244847201,2026-04-17 14h20.04.537162 -0700,
,,,,,,,,,,,28,0.025,0.5499999999999998,,,,,253.91018079100468,,,,,,,253.89454762500827,254.89358883300156,0.4500000000000002,0.5499999999999998,254.89718350001203,256.64367550000316,256.6456778749998,257.04434658300306,mostlygreen,green,0,0,0,0,16,"[0.5999999999999999, 0.6249999999999999, 0.5499999999999998, 0.5749999999999998, 0.5499999999999998, 0.5749999999999998, 0.5499999999999998, 0.5999999999999999, 0.5249999999999998, 0.5499999999999998, 0.4999999999999998]",0.5636363636363634,,,,,,,,,,,,,,,,,041726nc,001,2026-04-17_14h20.04.204,priming,,2026.1.3,60.01212244847201,2026-04-17 14h20.04.537162 -0700,
,,,,,,,,,,,29,0.025,0.5749999999999998,,,,,257.0602781660127,,,,,,,257.044594166,258.0436719999998,0.42500000000000016,0.5749999999999998,258.0472216660128,259.7936702910083,259.7975801660068,260.1276907910069,mostlygreen,green,0,0,0,0,16,"[0.5999999999999999, 0.6249999999999999, 0.5499999999999998, 0.5749999999999998, 0.5499999999999998, 0.5749999999999998, 0.5499999999999998, 0.5999999999999999, 0.5249999999999998, 0.5499999999999998, 0.4999999999999998]",0.5636363636363634,,,,,,,,,,,,,,,,,041726nc,001,2026-04-17_14h20.04.204,priming,,2026.1.3,60.01212244847201,2026-04-17 14h20.04.537162 -0700,
,,,,,,,,,,,30,0.025,0.5999999999999999,,,,,260.1435425410018,,,,,,,260.1279428330017,261.12687474999984,0.40000000000000013,0.5999999999999999,261.13044366599934,262.87703741600853,262.87985737501003,264.6776566660119,mostlyred,red,1,0,1,1,17,"[0.5999999999999999, 0.6249999999999999, 0.5499999999999998, 0.5749999999999998, 0.5499999999999998, 0.5749999999999998, 0.5499999999999998, 0.5999999999999999, 0.5249999999999998, 0.5499999999999998, 0.4999999999999998, 0.5999999999999999]",0.5666666666666664,,,,,,,,,,,,,,,,,041726nc,001,2026-04-17_14h20.04.204,priming,,2026.1.3,60.01212244847201,2026-04-17 14h20.04.537162 -0700,
,,,,,,,,,,,31,0.025,0.5749999999999998,,,,,264.69347704100073,,,,,,,264.67790900000546,265.67684912501136,0.42500000000000016,0.5749999999999998,265.6803527910088,267.42709812500107,267.43023420800455,268.52809125000203,mostlygreen,green,0,1,0,1,18,"[0.5999999999999999, 0.6249999999999999, 0.5499999999999998, 0.5749999999999998, 0.5499999999999998, 0.5749999999999998, 0.5499999999999998, 0.5999999999999999, 0.5249999999999998, 0.5499999999999998, 0.4999999999999998, 0.5999999999999999, 0.5749999999999998]",0.5673076923076921,,,,,,,,,,,,,,,,,041726nc,001,2026-04-17_14h20.04.204,priming,,2026.1.3,60.01212244847201,2026-04-17 14h20.04.537162 -0700,
,,,,,,,,,,,32,0.025,0.5999999999999999,,,,,268.5436488750129,,,,,,,268.528345291008,269.52707962501154,0.40000000000000013,0.5999999999999999,269.53074845801166,271.2770986250107,271.28040562500246,272.21102483301365,mostlyred,red,1,0,1,1,19,"[0.5999999999999999, 0.6249999999999999, 0.5499999999999998, 0.5749999999999998, 0.5499999999999998, 0.5749999999999998, 0.5499999999999998, 0.5999999999999999, 0.5249999999999998, 0.5499999999999998, 0.4999999999999998, 0.5999999999999999, 0.5749999999999998, 0.5999999999999999]",0.5696428571428569,,,,,,,,,,,,,,,,,041726nc,001,2026-04-17_14h20.04.204,priming,,2026.1.3,60.01212244847201,2026-04-17 14h20.04.537162 -0700,
,,,,,,,,,,,33,0.025,0.5749999999999998,,,,,272.2269742500066,,,,,,,272.21127558300213,273.2104380410019,0.42500000000000016,0.5749999999999998,273.2140110830078,274.9604635410069,274.9642684999999,276.4277145410015,mostlyred,red,1,1,1,0,19,"[0.5999999999999999, 0.6249999999999999, 0.5499999999999998, 0.5749999999999998, 0.5499999999999998, 0.5749999999999998, 0.5499999999999998, 0.5999999999999999, 0.5249999999999998, 0.5499999999999998, 0.4999999999999998, 0.5999999999999999, 0.5749999999999998, 0.5999999999999999]",0.5696428571428569,,,,,,,,,,,,,,,,,041726nc,001,2026-04-17_14h20.04.204,priming,,2026.1.3,60.01212244847201,2026-04-17 14h20.04.537162 -0700,
,,,,,,,,,,,34,0.025,0.5499999999999998,,,,,276.44364937501086,,,,,,,276.42796195800474,277.42696508301015,0.4500000000000002,0.5499999999999998,277.4304364580021,279.1770413330087,279.180071958006,279.79443483300565,mostlygreen,green,0,1,0,1,20,"[0.5999999999999999, 0.6249999999999999, 0.5499999999999998, 0.5749999999999998, 0.5499999999999998, 0.5749999999999998, 0.5499999999999998, 0.5999999999999999, 0.5249999999999998, 0.5499999999999998, 0.4999999999999998, 0.5999999999999999, 0.5749999999999998, 0.5999999999999999, 0.5499999999999998]",0.5683333333333331,,,,,,,,,,,,,,,,,041726nc,001,2026-04-17_14h20.04.204,priming,,2026.1.3,60.01212244847201,2026-04-17 14h20.04.537162 -0700,
,,,,,,,,,,,35,0.025,0.5749999999999998,,,,,279.81030570800067,,,,,,,279.7946872080065,280.7938228750136,0.42500000000000016,0.5749999999999998,280.7974159160076,282.5437017080112,282.54660837500705,283.8610363330081,mostlyred,red,1,0,1,1,21,"[0.6249999999999999, 0.5499999999999998, 0.5749999999999998, 0.5499999999999998, 0.5749999999999998, 0.5499999999999998, 0.5999999999999999, 0.5249999999999998, 0.5499999999999998, 0.4999999999999998, 0.5999999999999999, 0.5749999999999998, 0.5999999999999999, 0.5499999999999998, 0.5749999999999998]",0.5666666666666664,,,,,,,,,,,,,,,,,041726nc,001,2026-04-17_14h20.04.204,priming,,2026.1.3,60.01212244847201,2026-04-17 14h20.04.537162 -0700,
,,,,,,,,,,,36,0.025,0.5499999999999998,,,,,283.8769289160118,,,,,,,283.8612876660045,284.8604192500061,0.4500000000000002,0.5499999999999998,284.8639983750036,286.61040870800207,286.6132897500065,287.8615592910064,mostlyred,red,1,1,1,0,21,"[0.6249999999999999, 0.5499999999999998, 0.5749999999999998, 0.5499999999999998, 0.5749999999999998, 0.5499999999999998, 0.5999999999999999, 0.5249999999999998, 0.5499999999999998, 0.4999999999999998, 0.5999999999999999, 0.5749999999999998, 0.5999999999999999, 0.5499999999999998, 0.5749999999999998]",0.5666666666666664,,,,,,,,,,,,,,,,,041726nc,001,2026-04-17_14h20.04.204,priming,,2026.1.3,60.01212244847201,2026-04-17 14h20.04.537162 -0700,
,,,,,,,,,,,37,0.025,0.5249999999999998,,,,,287.8770636660047,,,,,,,287.86184595800296,288.8602545830072,0.4750000000000002,0.5249999999999998,288.8639062500006,290.6103478330042,290.61372183301137,291.710996083013,mostlygreen,green,0,1,0,1,22,"[0.5499999999999998, 0.5749999999999998, 0.5499999999999998, 0.5749999999999998, 0.5499999999999998, 0.5999999999999999, 0.5249999999999998, 0.5499999999999998, 0.4999999999999998, 0.5999999999999999, 0.5749999999999998, 0.5999999999999999, 0.5499999999999998, 0.5749999999999998, 0.5249999999999998]",0.5599999999999998,,,,,,,,,,,,,,,,,041726nc,001,2026-04-17_14h20.04.204,priming,,2026.1.3,60.01212244847201,2026-04-17 14h20.04.537162 -0700,
,,,,,,,,,,,38,0.025,0.5499999999999998,,,,,291.72697166600847,,,,,,,291.7112557500077,292.71042337499966,0.4500000000000002,0.5499999999999998,292.7140249160002,294.46038904100715,294.4629017910047,295.6278335829993,mostlygreen,green,0,0,0,0,22,"[0.5499999999999998, 0.5749999999999998, 0.5499999999999998, 0.5749999999999998, 0.5499999999999998, 0.5999999999999999, 0.5249999999999998, 0.5499999999999998, 0.4999999999999998, 0.5999999999999999, 0.5749999999999998, 0.5999999999999999, 0.5499999999999998, 0.5749999999999998, 0.5249999999999998]",0.5599999999999998,,,,,,,,,,,,,,,,,041726nc,001,2026-04-17_14h20.04.204,priming,,2026.1.3,60.01212244847201,2026-04-17 14h20.04.537162 -0700,
,,,,,,,,,,,39,0.025,0.5749999999999998,,,,,295.64376737500424,,,,,,,295.6280808750016,296.6272304580052,0.42500000000000016,0.5749999999999998,296.63083604100393,298.3773105410073,298.37996512500104,299.2278538750106,mostlyred,red,1,0,1,1,23,"[0.5749999999999998, 0.5499999999999998, 0.5749999999999998, 0.5499999999999998, 0.5999999999999999, 0.5249999999999998, 0.5499999999999998, 0.4999999999999998, 0.5999999999999999, 0.5749999999999998, 0.5999999999999999, 0.5499999999999998, 0.5749999999999998, 0.5249999999999998, 0.5749999999999998]",0.5616666666666664,,,,,,,,,,,,,,,,,041726nc,001,2026-04-17_14h20.04.204,priming,,2026.1.3,60.01212244847201,2026-04-17 14h20.04.537162 -0700,
,,,,,,,,,,,,,,,,,,,,,,space,126.44896208299906,None,,,,,,,,,,,,,,,,,,,,,,,,,,,,,,,,,,041726nc,001,2026-04-17_14h20.04.204,priming,,2026.1.3,60.01212244847201,2026-04-17 14h20.04.537162 -0700,
GG_non_riv_catch_GreenCue_GreenProbe_Bottom,GreenGaborBoth.png,Blank.png,GreenGaborDisappearBottom.png,Blank.png,Green.mp3,green,bottom,0,0,0,,,,0,0,0,79,425.74397675000364,,,,,,,,,,,,,,,,bottom,,,,,,,,425.7364421250095,428.02831037501164,428.02847620801185,433.2777406660025,433.2861834159994,434.5277926250128,434.5312400410039,436.0948766250076,436.0979438330105,440.71201716600626,allgreen,FinalRedContrast,FinalGreenContrast,440.71524016601325,446.57864987500943,5,041726nc,001,2026-04-17_14h20.04.204,priming,,2026.1.3,60.01212244847201,2026-04-17 14h20.04.537162 -0700,
GR_Congruent_GreenCue_GreenProbe_Bottom,GreenGaborBoth.png,RedGaborBoth.png,GreenGaborDisappearBottom.png,RedGaborBoth.png,Green.mp3,green,bottom,1,1,0,,,,0,1,1,3,446.5943805410061,,,,,,,,,,,,,,,,bottom,,,,,,,,446.5787681660004,447.52851841600204,447.52870912500657,452.7779126250098,452.78539954101143,454.02788370801136,454.03083420800976,463.66173745800916,463.6640976660128,467.1124064580072,evensplit,FinalRedContrast,FinalGreenContrast,467.1153327909997,471.728747000001,3,041726nc,001,2026-04-17_14h20.04.204,priming,,2026.1.3,60.01212244847201,2026-04-17 14h20.04.537162 -0700,
GR_Incongruent_RedCue_GreenProbe_Bottom,GreenGaborBoth.png,RedGaborBoth.png,GreenGaborDisappearBottom.png,RedGaborBoth.png,Red.mp3,red,bottom,2,2,0,,,,0,2,2,29,471.7445894160046,,,,,,,,,,,,,,,,bottom,,,,,,,,471.7304637910129,518.5617918750067,518.5619610830036,523.8113822500018,523.819838291005,525.0614646250033,525.0641944160016,529.8954136250104,529.8975235000107,532.0623567080038,mostlyred,FinalRedContrast,FinalGreenContrast,532.0654582910065,534.4790713330003,3,041726nc,001,2026-04-17_14h20.04.204,priming,,2026.1.3,60.01212244847201,2026-04-17 14h20.04.537162 -0700,
GR_Congruent_RedCue_RedProbe_Bottom,GreenGaborBoth.png,RedGaborBoth.png,GreenGaborBoth.png,RedGaborDisappearBottom.png,Red.mp3,red,bottom,3,3,0,,,,0,3,3,65,534.4948317910021,,,,,,,,,,,,,,,,top,,,,,,,,534.4791872080095,535.3785924580006,535.3787537500029,540.6281821250013,540.6362816660112,541.8783794160117,541.8814525000053,547.6786897500133,547.6814481660113,550.8290312910103,mostlygreen,FinalRedContrast,FinalGreenContrast,550.832838708011,556.9127470000094,4,041726nc,001,2026-04-17_14h20.04.204,priming,,2026.1.3,60.01212244847201,2026-04-17 14h20.04.537162 -0700,
GR_Congruent_RedCue_RedProbe_Bottom,GreenGaborBoth.png,RedGaborBoth.png,GreenGaborBoth.png,RedGaborDisappearBottom.png,Red.mp3,red,bottom,4,4,0,,,,0,4,4,9,556.9280916660064,,,,,,,,,,,,,,,,bottom,,,,,,,,556.912863000005,557.5618780410005,557.5620415830053,562.8117439160123,562.818257625011,564.0617395410081,564.0634757080115,567.0121532910125,567.0150907909992,568.7124836250005,mostlygreen,FinalRedContrast,FinalGreenContrast,568.7165712500137,570.1292258750036,5,041726nc,001,2026-04-17_14h20.04.204,priming,,2026.1.3,60.01212244847201,2026-04-17 14h20.04.537162 -0700,
GG_non_riv_catch_GreenCue_GreenProbe_Top,GreenGaborBoth.png,Blank.png,GreenGaborDisappearTop.png,Blank.png,Green.mp3,green,top,5,5,0,,,,0,5,5,78,570.1449264160037,,,,,,,,,,,,,,,,top,,,,,,,,570.1311658750055,570.7453440410027,570.7455070410069,575.9950331660075,576.0021236660104,577.2450432080077,577.2475712500018,579.2958540000109,579.2986087080062,580.7624947080039,allgreen,FinalRedContrast,FinalGreenContrast,580.765438375005,582.4124932080013,4,041726nc,001,2026-04-17_14h20.04.204,priming,,2026.1.3,60.01212244847201,2026-04-17 14h20.04.537162 -0700,
GR_Congruent_GreenCue_GreenProbe_Top,GreenGaborBoth.png,RedGaborBoth.png,GreenGaborDisappearTop.png,RedGaborBoth.png,Green.mp3,green,top,6,6,0,,,,0,6,6,34,582.4282470830076,,,,,,,,,,,,,,,,top,,,,,,,,582.4126101660077,583.4953936660022,583.4955586660071,588.745068291013,588.7515737909998,589.995220708006,589.9973870410031,590.9123732500011,590.9145638750051,592.8960082910053,mostlygreen,FinalRedContrast,FinalGreenContrast,592.8987125000131,595.279409625,5,041726nc,001,2026-04-17_14h20.04.204,priming,,2026.1.3,60.01212244847201,2026-04-17 14h20.04.537162 -0700,
RR_non_riv_catch_GreenCue_RedProbe_Top,Blank.png,RedGaborBoth.png,Blank.png,RedGaborDisappearTop.png,Green.mp3,green,top,7,7,0,,,,0,7,7,74,595.2950890409993,,,,,,,,,,,,,,,,top,,,,,,,,595.279524291007,595.6622596660018,595.6624225410051,600.9118366660114,600.9193124580052,602.1618772910006,602.1656589580089,602.8455938750121,602.8488475000049,603.7626637909998,allred,FinalRedContrast,FinalGreenContrast,603.7664194160025,604.9959527910105,5,041726nc,001,2026-04-17_14h20.04.204,priming,,2026.1.3,60.01212244847201,2026-04-17 14h20.04.537162 -0700,
GR_Incongruent_GreenCue_RedProbe_Top,GreenGaborBoth.png,RedGaborBoth.png,GreenGaborBoth.png,RedGaborDisappearTop.png,Green.mp3,green,top,8,8,0,,,,0,8,8,6,605.0117245830043,,,,,,,,,,,,,,,,bottom,,,,,,,,604.9960762500123,605.6955489579996,605.6957145410124,610.9451779160008,610.9529266250029,612.1951580000023,612.1978168330097,615.7456761659996,615.7488045000064,618.812611833011,allgreen,FinalRedContrast,FinalGreenContrast,618.8161147909996,620.9294255000132,3,041726nc,001,2026-04-17_14h20.04.204,priming,,2026.1.3,60.01212244847201,2026-04-17 14h20.04.537162 -0700,
GR_Incongruent_RedCue_GreenProbe_Top,GreenGaborBoth.png,RedGaborBoth.png,GreenGaborDisappearTop.png,RedGaborBoth.png,Red.mp3,red,top,9,9,0,,,,0,9,9,60,620.945241666006,,,,,,,,,,,,,,,,top,,,,,,,,620.9311782500008,621.4123025000008,621.4124688750017,626.6619104160054,626.6696163330053,627.9119629580091,627.9148086250061,629.9957685000118,629.9981496250111,630.8795301250066,mostlygreen,FinalRedContrast,FinalGreenContrast,630.8830408750073,632.7128085410077,5,041726nc,001,2026-04-17_14h20.04.204,priming,,2026.1.3,60.01212244847201,2026-04-17 14h20.04.537162 -0700,
GR_Congruent_GreenCue_GreenProbe_Top,GreenGaborBoth.png,RedGaborBoth.png,GreenGaborDisappearTop.png,RedGaborBoth.png,Green.mp3,green,top,10,10,0,,,,0,10,10,26,632.7284261660097,,,,,,,,,,,,,,,,top,,,,,,,,632.714727041006,633.1790057910111,633.1791760000051,638.4286288750009,638.435250791008,639.6785539580014,639.6807942910091,640.5958172500104,640.5984356250119,642.1293675830093,allgreen,FinalRedContrast,FinalGreenContrast,642.1337922080129,643.6160122500005,5,041726nc,001,2026-04-17_14h20.04.204,priming,,2026.1.3,60.01212244847201,2026-04-17 14h20.04.537162 -0700,
GR_Congruent_RedCue_RedProbe_Top,GreenGaborBoth.png,RedGaborBoth.png,GreenGaborBoth.png,RedGaborDisappearTop.png,Red.mp3,red,top,11,11,0,,,,0,11,11,16,643.6285841250065,,,,,,,,,,,,,,,,bottom,,,,,,,,643.6180452910048,644.6622736249992,644.6624411250086,649.912071416009,649.9186276660039,651.1621146250109,651.163791791012,655.0124988750031,655.0160147910065,658.062895125011,allgreen,FinalRedContrast,FinalGreenContrast,658.0657362080092,660.9629434160015,4,041726nc,001,2026-04-17_14h20.04.204,priming,,2026.1.3,60.01212244847201,2026-04-17 14h20.04.537162 -0700,
GR_Congruent_RedCue_RedProbe_Bottom,GreenGaborBoth.png,RedGaborBoth.png,GreenGaborBoth.png,RedGaborDisappearBottom.png,Red.mp3,red,bottom,12,12,0,,,,0,12,12,17,660.9786430410022,,,,,,,,,,,,,,,,top,,,,,,,,660.9630601250101,661.895783333006,661.8959459580074,667.1454278750025,667.1531826660066,668.3954030830064,668.3979691250133,670.7125428330037,670.7152322910115,672.3961991660035,allgreen,FinalRedContrast,FinalGreenContrast,672.3998773750063,675.2296694160032,4,041726nc,001,2026-04-17_14h20.04.204,priming,,2026.1.3,60.01212244847201,2026-04-17 14h20.04.537162 -0700,
GR_Incongruent_GreenCue_RedProbe_Top,GreenGaborBoth.png,RedGaborBoth.png,GreenGaborBoth.png,RedGaborDisappearTop.png,Green.mp3,green,top,13,13,0,,,,0,13,13,30,675.2453384160035,,,,,,,,,,,,,,,,bottom,,,,,,,,675.2316002080042,675.6794530410116,675.679629833001,680.928858750005,680.9355219580029,682.1788781659998,682.1813984160108,685.129347375012,685.1319197910052,688.1629853750055,allgreen,FinalRedContrast,FinalGreenContrast,688.1657369160093,689.4800486660097,3,041726nc,001,2026-04-17_14h20.04.204,priming,,2026.1.3,60.01212244847201,2026-04-17 14h20.04.537162 -0700,
GR_Incongruent_GreenCue_RedProbe_Top,GreenGaborBoth.png,RedGaborBoth.png,GreenGaborBoth.png,RedGaborDisappearTop.png,Green.mp3,green,top,14,14,0,,,,0,14,14,70,689.4955183330021,,,,,,,,,,,,,,,,bottom,,,,,,,,689.4801645830012,689.9625632500101,689.9627287080075,695.2121192080085,695.2186764159997,696.4622740830091,696.4651344580052,701.412651458013,701.4146828330122,703.0130050830048,allgreen,FinalRedContrast,FinalGreenContrast,703.0171843330027,705.2297519160056,3,041726nc,001,2026-04-17_14h20.04.204,priming,,2026.1.3,60.01212244847201,2026-04-17 14h20.04.537162 -0700,
GR_Congruent_RedCue_RedProbe_Bottom,GreenGaborBoth.png,RedGaborBoth.png,GreenGaborBoth.png,RedGaborDisappearBottom.png,Red.mp3,red,bottom,15,15,0,,,,0,15,15,49,705.2456151660008,,,,,,,,,,,,,,,,bottom,,,,,,,,705.2314207500021,707.2798875830049,707.2801110410073,712.5290461660043,712.5356806660129,713.7790095000091,713.7820668750064,714.8296255830064,714.8324998330063,716.0298025830125,allgreen,FinalRedContrast,FinalGreenContrast,716.0332570410101,717.2801896250021,4,041726nc,001,2026-04-17_14h20.04.204,priming,,2026.1.3,60.01212244847201,2026-04-17 14h20.04.537162 -0700,
GR_Incongruent_RedCue_GreenProbe_Top,GreenGaborBoth.png,RedGaborBoth.png,GreenGaborDisappearTop.png,RedGaborBoth.png,Red.mp3,red,top,16,16,0,,,,0,16,16,4,717.2956255410099,,,,,,,,,,,,,,,,top,,,,,,,,717.2803032080119,717.6961082080088,717.6962729580118,722.9456407079997,722.9532491660066,724.1956880000071,724.1983046250098,724.979411666005,724.9820654159994,725.9131917080085,allgreen,FinalRedContrast,FinalGreenContrast,725.9161329160124,726.9631795830064,5,041726nc,001,2026-04-17_14h20.04.204,priming,,2026.1.3,60.01212244847201,2026-04-17 14h20.04.537162 -0700,
GR_Congruent_RedCue_RedProbe_Bottom,GreenGaborBoth.png,RedGaborBoth.png,GreenGaborBoth.png,RedGaborDisappearBottom.png,Red.mp3,red,bottom,17,17,0,,,,0,17,17,41,726.9789588330023,,,,,,,,,,,,,,,,bottom,,,,,,,,726.9632937500137,727.7293995830114,727.7295635000046,732.9790180830023,732.9855781660008,734.2289905409998,734.2321295000002,734.896192375003,734.8984635000088,736.0464507080032,allgreen,FinalRedContrast,FinalGreenContrast,736.049769958001,736.9205422080122,5,041726nc,001,2026-04-17_14h20.04.204,priming,,2026.1.3,60.01212244847201,2026-04-17 14h20.04.537162 -0700,
GR_Congruent_RedCue_RedProbe_Top,GreenGaborBoth.png,RedGaborBoth.png,GreenGaborBoth.png,RedGaborDisappearTop.png,Red.mp3,red,top,18,18,0,,,,0,18,18,56,736.9288047500013,,,,,,,,,,,,,,,,top,,,,,,,,736.9206576249999,737.4127107500099,737.4128743750043,742.6624740410043,742.670023291008,743.912512875002,743.9146865830116,746.0629464160011,746.0658619580063,747.4803102500009,allgreen,FinalRedContrast,FinalGreenContrast,747.4833793330035,749.1465652500046,4,041726nc,001,2026-04-17_14h20.04.204,priming,,2026.1.3,60.01212244847201,2026-04-17 14h20.04.537162 -0700,
GR_Incongruent_GreenCue_RedProbe_Bottom,GreenGaborBoth.png,RedGaborBoth.png,GreenGaborBoth.png,RedGaborDisappearBottom.png,Green.mp3,green,bottom,19,19,0,,,,0,19,19,39,749.1622918750072,,,,,,,,,,,,,,,,bottom,,,,,,,,749.1485795410117,749.5631105830107,749.5633376250044,754.8125366250024,754.8189398329996,756.0624746250105,756.0650972500007,756.6799114580062,756.6823952080013,759.3799427910126,allgreen,FinalRedContrast,FinalGreenContrast,759.3838192500116,760.880511291005,5,041726nc,001,2026-04-17_14h20.04.204,priming,,2026.1.3,60.01212244847201,2026-04-17 14h20.04.537162 -0700,
GR_Incongruent_RedCue_GreenProbe_Bottom,GreenGaborBoth.png,RedGaborBoth.png,GreenGaborDisappearBottom.png,RedGaborBoth.png,Red.mp3,red,bottom,20,20,0,,,,0,20,20,45,760.8958056660049,,,,,,,,,,,,,,,,bottom,,,,,,,,760.8823012909997,761.2462127500039,761.2463782910054,766.4957881250011,766.5034310410119,767.7458097080089,767.7492817080056,768.2636132500047,768.2640543330053,769.2799932910129,allgreen,FinalRedContrast,FinalGreenContrast,769.2826497500064,770.296915333005,5,041726nc,001,2026-04-17_14h20.04.204,priming,,2026.1.3,60.01212244847201,2026-04-17 14h20.04.537162 -0700,
GR_Congruent_RedCue_RedProbe_Bottom,GreenGaborBoth.png,RedGaborBoth.png,GreenGaborBoth.png,RedGaborDisappearBottom.png,Red.mp3,red,bottom,21,21,0,,,,0,21,21,33,770.3122772500064,,,,,,,,,,,,,,,,bottom,,,,,,,,770.2970310410019,770.8962156660127,770.8963820000063,776.1459182910039,776.1525983750034,777.395821625003,777.399637333001,779.0630668330123,779.065057166008,782.0634247080015,allgreen,FinalRedContrast,FinalGreenContrast,782.0666219160048,782.9633791250089,4,041726nc,001,2026-04-17_14h20.04.204,priming,,2026.1.3,60.01212244847201,2026-04-17 14h20.04.537162 -0700,
GR_Incongruent_RedCue_GreenProbe_Top,GreenGaborBoth.png,RedGaborBoth.png,GreenGaborDisappearTop.png,RedGaborBoth.png,Red.mp3,red,top,22,22,0,,,,0,22,22,36,782.9791695410095,,,,,,,,,,,,,,,,top,,,,,,,,782.9634964160068,783.6629611660028,783.6631233330118,788.9126225000073,788.9200268750137,790.1626284580125,790.1654412500066,790.6964361249993,790.6994705410034,791.5800447500078,allgreen,FinalRedContrast,FinalGreenContrast,791.5829819580104,792.7633642500004,5,041726nc,001,2026-04-17_14h20.04.204,priming,,2026.1.3,60.01212244847201,2026-04-17 14h20.04.537162 -0700,
GR_Incongruent_RedCue_GreenProbe_Bottom,GreenGaborBoth.png,RedGaborBoth.png,GreenGaborDisappearBottom.png,RedGaborBoth.png,Red.mp3,red,bottom,23,23,0,,,,0,23,23,53,792.7791470410011,,,,,,,,,,,,,,,,bottom,,,,,,,,792.7634782910027,793.1629881250119,793.1631555830099,798.4125182080024,798.4190939160035,799.662639541013,799.6652402910113,801.296704583001,801.2973705410113,802.2300069160119,allgreen,FinalRedContrast,FinalGreenContrast,802.233378666002,803.0639924160059,5,041726nc,001,2026-04-17_14h20.04.204,priming,,2026.1.3,60.01212244847201,2026-04-17 14h20.04.537162 -0700,
GR_Incongruent_RedCue_GreenProbe_Top,GreenGaborBoth.png,RedGaborBoth.png,GreenGaborDisappearTop.png,RedGaborBoth.png,Red.mp3,red,top,24,24,0,,,,0,24,24,52,803.0791029160027,,,,,,,,,,,,,,,,top,,,,,,,,803.0641087910044,803.9964388330118,803.9966014160018,809.2460821660061,809.2526333330024,810.4961532910093,810.4985735000082,811.9798028330115,811.9828990410024,812.9135850830062,allgreen,FinalRedContrast,FinalGreenContrast,812.9171409160044,813.5880746660114,5,041726nc,001,2026-04-17_14h20.04.204,priming,,2026.1.3,60.01212244847201,2026-04-17 14h20.04.537162 -0700,
GR_Incongruent_GreenCue_RedProbe_Bottom,GreenGaborBoth.png,RedGaborBoth.png,GreenGaborBoth.png,RedGaborDisappearBottom.png,Green.mp3,green,bottom,25,25,0,,,,0,25,25,23,813.5956506250077,,,,,,,,,,,,,,,,bottom,,,,,,,,813.5900503330049,814.1130877910036,814.1132534580101,819.3627879160049,819.3695078330056,820.6126907500002,820.6158816250099,822.3130311660061,822.3167166250059,823.4301922500017,allgreen,FinalRedContrast,FinalGreenContrast,823.4335679580108,824.2804596250062,4,041726nc,001,2026-04-17_14h20.04.204,priming,,2026.1.3,60.01212244847201,2026-04-17 14h20.04.537162 -0700,
GR_Incongruent_RedCue_GreenProbe_Top,GreenGaborBoth.png,RedGaborBoth.png,GreenGaborDisappearTop.png,RedGaborBoth.png,Red.mp3,red,top,26,26,0,,,,0,26,26,68,824.2959206250089,,,,,,,,,,,,,,,,top,,,,,,,,824.2821270410059,824.7131189160136,824.7132897910051,829.9627344580076,829.9692115000071,831.2127470000123,831.2161756660062,831.9632580000034,831.966094708012,832.763617708013,allgreen,FinalRedContrast,FinalGreenContrast,832.7668635000009,833.5720013750106,5,041726nc,001,2026-04-17_14h20.04.204,priming,,2026.1.3,60.01212244847201,2026-04-17 14h20.04.537162 -0700,
GR_Congruent_RedCue_RedProbe_Top,GreenGaborBoth.png,RedGaborBoth.png,GreenGaborBoth.png,RedGaborDisappearTop.png,Red.mp3,red,top,27,27,0,,,,0,27,27,64,833.5792655000114,,,,,,,,,,,,,,,,bottom,,,,,,,,833.5721182910056,834.079961083,834.0801263750036,839.3295256660058,839.3371781660098,840.5795353330032,840.5822298330022,844.6805242500122,844.6809154580114,845.8802649999998,allgreen,FinalRedContrast,FinalGreenContrast,845.8844721250061,846.6637130000017,4,041726nc,001,2026-04-17_14h20.04.204,priming,,2026.1.3,60.01212244847201,2026-04-17 14h20.04.537162 -0700,
GR_Incongruent_GreenCue_RedProbe_Top,GreenGaborBoth.png,RedGaborBoth.png,GreenGaborBoth.png,RedGaborDisappearTop.png,Green.mp3,green,top,28,28,0,,,,0,28,28,46,846.6794439160003,,,,,,,,,,,,,,,,top,,,,,,,,846.6656729580136,847.1130728749995,847.1132355000009,852.3628558330092,852.3693601660052,853.6129025830014,853.6169274160056,854.363507291011,854.3643992500001,855.2803397500102,allgreen,FinalRedContrast,FinalGreenContrast,855.2836772080045,856.2137077910011,5,041726nc,001,2026-04-17_14h20.04.204,priming,,2026.1.3,60.01212244847201,2026-04-17 14h20.04.537162 -0700,
GR_Incongruent_GreenCue_RedProbe_Top,GreenGaborBoth.png,RedGaborBoth.png,GreenGaborBoth.png,RedGaborDisappearTop.png,Green.mp3,green,top,29,29,0,,,,0,29,29,14,856.2294127500063,,,,,,,,,,,,,,,,top,,,,,,,,856.2138242910005,856.6632515000092,856.6634150830068,861.9128944160038,861.919300708003,863.1629234580032,863.1649873330025,863.6800172910007,863.6830990000017,864.6802661250113,allgreen,FinalRedContrast,FinalGreenContrast,864.6841037080012,866.0971383330034,5,041726nc,001,2026-04-17_14h20.04.204,priming,,2026.1.3,60.01212244847201,2026-04-17 14h20.04.537162 -0700,
GR_Incongruent_GreenCue_RedProbe_Top,GreenGaborBoth.png,RedGaborBoth.png,GreenGaborBoth.png,RedGaborDisappearTop.png,Green.mp3,green,top,30,30,0,,,,0,30,30,22,866.1129171659995,,,,,,,,,,,,,,,,top,,,,,,,,866.0972536250047,866.546703666012,866.5468663750071,871.7963482910127,871.8027683750115,873.0463010830135,873.0487900000007,875.7801331250084,875.7832468330016,877.2641513750132,mostlyred,FinalRedContrast,FinalGreenContrast,877.2674831250042,880.4969920410076,4,041726nc,001,2026-04-17_14h20.04.204,priming,,2026.1.3,60.01212244847201,2026-04-17 14h20.04.537162 -0700,
GR_Incongruent_RedCue_GreenProbe_Bottom,GreenGaborBoth.png,RedGaborBoth.png,GreenGaborDisappearBottom.png,RedGaborBoth.png,Red.mp3,red,bottom,31,31,0,,,,0,31,31,13,880.5129036660073,,,,,,,,,,,,,,,,bottom,,,,,,,,880.4987677910103,880.8967652910069,880.8969319160096,886.1463372910075,886.1540075410012,887.3963611250074,887.3987458330084,889.2134532500058,889.2171697080048,890.4972016660031,allgreen,FinalRedContrast,FinalGreenContrast,890.5000611660071,893.9305040410109,4,041726nc,001,2026-04-17_14h20.04.204,priming,,2026.1.3,60.01212244847201,2026-04-17 14h20.04.537162 -0700,
GR_Congruent_GreenCue_GreenProbe_Bottom,GreenGaborBoth.png,RedGaborBoth.png,GreenGaborDisappearBottom.png,RedGaborBoth.png,Green.mp3,green,bottom,32,32,0,,,,0,32,32,51,893.9462445410027,,,,,,,,,,,,,,,,bottom,,,,,,,,893.9324091660092,894.3633672910073,894.3635298330046,899.613150833,899.6197572080127,900.8631691660121,900.8663587080082,901.3969447080017,901.3994787910051,902.9805864160007,allgreen,FinalRedContrast,FinalGreenContrast,902.9844676250068,903.7139622500108,5,041726nc,001,2026-04-17_14h20.04.204,priming,,2026.1.3,60.01212244847201,2026-04-17 14h20.04.537162 -0700,
RR_non_riv_catch_RedCue_RedProbe_Bottom,Blank.png,RedGaborBoth.png,Blank.png,RedGaborDisappearBottom.png,Red.mp3,red,bottom,33,33,0,,,,0,33,33,73,903.7296977080114,,,,,,,,,,,,,,,,bottom,,,,,,,,903.7156175830023,904.1470162500045,904.1472252500098,909.396512708001,909.4033173330099,910.646454791,910.6499647080054,912.1302271660097,912.1333872079995,913.4473021660087,allred,FinalRedContrast,FinalGreenContrast,913.4506521660078,914.4474490830034,5,041726nc,001,2026-04-17_14h20.04.204,priming,,2026.1.3,60.01212244847201,2026-04-17 14h20.04.537162 -0700,
GR_Incongruent_GreenCue_RedProbe_Top,GreenGaborBoth.png,RedGaborBoth.png,GreenGaborBoth.png,RedGaborDisappearTop.png,Green.mp3,green,top,34,34,0,,,,0,34,34,62,914.4629787080048,,,,,,,,,,,,,,,,top,,,,,,,,914.4494937500131,914.896797666006,914.8969598750118,920.146444375001,920.1531097910047,921.3964359160018,921.3992924580089,924.3471289580048,924.3501226250082,925.5639102080022,allgreen,FinalRedContrast,FinalGreenContrast,925.5676776660111,926.430587875002,4,041726nc,001,2026-04-17_14h20.04.204,priming,,2026.1.3,60.01212244847201,2026-04-17 14h20.04.537162 -0700,
GG_non_riv_catch_RedCue_GreenProbe_Bottom,GreenGaborBoth.png,Blank.png,GreenGaborDisappearBottom.png,Blank.png,Red.mp3,red,bottom,35,35,0,,,,0,35,35,77,926.4462984580023,,,,,,,,,,,,,,,,bottom,,,,,,,,926.4322254580038,926.8635319160094,926.8636984160112,932.113176208004,932.1188703750086,933.3632338750031,933.3661790000042,933.7972872080136,933.7979291660013,935.1307145410101,allgreen,FinalRedContrast,FinalGreenContrast,935.1332037910033,936.1811131249997,5,041726nc,001,2026-04-17_14h20.04.204,priming,,2026.1.3,60.01212244847201,2026-04-17 14h20.04.537162 -0700,
GR_Incongruent_GreenCue_RedProbe_Bottom,GreenGaborBoth.png,RedGaborBoth.png,GreenGaborBoth.png,RedGaborDisappearBottom.png,Green.mp3,green,bottom,36,36,0,,,,0,36,36,31,936.1964089160028,,,,,,,,,,,,,,,,top,,,,,,,,936.1830695410026,936.616712166011,936.6168771660014,941.863276041011,941.8698317080125,943.1132612910005,943.1160975410021,945.7303811660095,945.7327963749995,946.8807715830044,allgreen,FinalRedContrast,FinalGreenContrast,946.8835771660088,949.997411083008,4,041726nc,001,2026-04-17_14h20.04.204,priming,,2026.1.3,60.01212244847201,2026-04-17 14h20.04.537162 -0700,
GR_Incongruent_RedCue_GreenProbe_Bottom,GreenGaborBoth.png,RedGaborBoth.png,GreenGaborDisappearBottom.png,RedGaborBoth.png,Red.mp3,red,bottom,37,37,0,,,,0,37,37,37,950.0131557910063,,,,,,,,,,,,,,,,bottom,,,,,,,,949.9990434580104,950.2968668750109,950.2970301660098,955.546641375011,955.5531097910134,956.7965056660032,956.7994651250046,957.2138095000118,957.2170566660061,958.1641980000131,allgreen,FinalRedContrast,FinalGreenContrast,958.1677915830078,959.4195134580077,5,041726nc,001,2026-04-17_14h20.04.204,priming,,2026.1.3,60.01212244847201,2026-04-17 14h20.04.537162 -0700,
GR_Congruent_GreenCue_GreenProbe_Bottom,GreenGaborBoth.png,RedGaborBoth.png,GreenGaborDisappearBottom.png,RedGaborBoth.png,Green.mp3,green,bottom,38,38,0,,,,0,38,38,11,959.4298227500112,,,,,,,,,,,,,,,,bottom,,,,,,,,959.4214560410037,959.9970692500065,959.9972345830029,965.2466278330103,965.2532319160091,966.4967427500087,966.4984375410131,967.4971381659998,967.5001000830089,968.7641382500005,allgreen,FinalRedContrast,FinalGreenContrast,968.7675126660033,969.7811741660116,5,041726nc,001,2026-04-17_14h20.04.204,priming,,2026.1.3,60.01212244847201,2026-04-17 14h20.04.537162 -0700,
GR_Incongruent_GreenCue_RedProbe_Bottom,GreenGaborBoth.png,RedGaborBoth.png,GreenGaborBoth.png,RedGaborDisappearBottom.png,Green.mp3,green,bottom,39,39,0,,,,0,39,39,15,969.7965077080007,,,,,,,,,,,,,,,,top,,,,,,,,969.7812915000104,970.4803911660129,970.4805568330048,975.7300401660032,975.7367549580085,976.980104458009,976.9842713750113,982.8808244579996,982.8814385000005,983.8313172080088,allgreen,FinalRedContrast,FinalGreenContrast,983.8333367080049,984.4975720830116,3,041726nc,001,2026-04-17_14h20.04.204,priming,,2026.1.3,60.01212244847201,2026-04-17 14h20.04.537162 -0700,
RR_non_riv_catch_RedCue_RedProbe_Top,Blank.png,RedGaborBoth.png,Blank.png,RedGaborDisappearTop.png,Red.mp3,red,top,40,40,0,,,,0,40,40,72,984.51332254101,,,,,,,,,,,,,,,,top,,,,,,,,984.499247041007,985.9471575000061,985.9473228330025,991.1968159579992,991.2024049580068,992.446880375006,992.4500218750036,994.3972926250135,994.3995934160048,996.8351274160086,allred,FinalRedContrast,FinalGreenContrast,996.8353944580012,999.9552993750112,5,041726nc,001,2026-04-17_14h20.04.204,priming,,2026.1.3,60.01212244847201,2026-04-17 14h20.04.537162 -0700,
GR_Incongruent_RedCue_GreenProbe_Bottom,GreenGaborBoth.png,RedGaborBoth.png,GreenGaborDisappearBottom.png,RedGaborBoth.png,Red.mp3,red,bottom,41,41,0,,,,0,41,41,5,999.9632649160048,,,,,,,,,,,,,,,,bottom,,,,,,,,999.9554176250094,1007.5471497910039,1007.5473134580097,1012.7968334160105,1012.8034675830131,1014.0468596660066,1014.0490987500089,1014.9639349160134,1014.9664625410078,1015.5809971250128,allgreen,FinalRedContrast,FinalGreenContrast,1015.5847395000019,1016.4313565830089,5,041726nc,001,2026-04-17_14h20.04.204,priming,,2026.1.3,60.01212244847201,2026-04-17 14h20.04.537162 -0700,
GR_Congruent_RedCue_RedProbe_Top,GreenGaborBoth.png,RedGaborBoth.png,GreenGaborBoth.png,RedGaborDisappearTop.png,Red.mp3,red,top,42,42,0,,,,0,42,42,48,1016.4467218330101,,,,,,,,,,,,,,,,bottom,,,,,,,,1016.4314737910026,1016.8973875410011,1016.8976272500004,1022.1469658749993,1022.1535416660045,1023.3968457080045,1023.3988267500099,1026.3640653750044,1026.366419458005,1027.5977505000046,allgreen,FinalRedContrast,FinalGreenContrast,1027.6011137080059,1030.981120166005,4,041726nc,001,2026-04-17_14h20.04.204,priming,,2026.1.3,60.01212244847201,2026-04-17 14h20.04.537162 -0700,
RR_non_riv_catch_GreenCue_RedProbe_Bottom,Blank.png,RedGaborBoth.png,Blank.png,RedGaborDisappearBottom.png,Green.mp3,green,bottom,43,43,0,,,,0,43,43,75,1030.996848750001,,,,,,,,,,,,,,,,bottom,,,,,,,,1030.9829982080118,1031.380572500013,1031.3807359580096,1036.6302524580096,1036.6358605000132,1037.8802461250016,1037.8833723330026,1038.3639895830129,1038.3675803330116,1039.4478127080074,allred,FinalRedContrast,FinalGreenContrast,1039.450767458009,1040.2311354160047,5,041726nc,001,2026-04-17_14h20.04.204,priming,,2026.1.3,60.01212244847201,2026-04-17 14h20.04.537162 -0700,
GR_Incongruent_RedCue_GreenProbe_Bottom,GreenGaborBoth.png,RedGaborBoth.png,GreenGaborDisappearBottom.png,RedGaborBoth.png,Red.mp3,red,bottom,44,44,0,,,,0,44,44,21,1040.246831041004,,,,,,,,,,,,,,,,bottom,,,,,,,,1040.232786083012,1040.6139560830052,1040.6141188330075,1045.8636615410069,1045.8701679160004,1047.1136359580123,1047.1159706250037,1047.7974715410091,1047.7999775410135,1049.6477087500098,allgreen,FinalRedContrast,FinalGreenContrast,1049.6519653330033,1051.497922208,4,041726nc,001,2026-04-17_14h20.04.204,priming,,2026.1.3,60.01212244847201,2026-04-17 14h20.04.537162 -0700,
GR_Congruent_GreenCue_GreenProbe_Top,GreenGaborBoth.png,RedGaborBoth.png,GreenGaborDisappearTop.png,RedGaborBoth.png,Green.mp3,green,top,45,45,0,,,,0,45,45,42,1051.513716875008,,,,,,,,,,,,,,,,top,,,,,,,,1051.4998247500043,1051.7808142499998,1051.780978875002,1057.0304314580135,1057.0381064160028,1058.2804754579993,1058.2834055830026,1063.2975752910133,1063.3000503750081,1065.614479625001,allgreen,FinalRedContrast,FinalGreenContrast,1065.618538708004,1067.4479087910004,5,041726nc,001,2026-04-17_14h20.04.204,priming,,2026.1.3,60.01212244847201,2026-04-17 14h20.04.537162 -0700,
GR_Congruent_GreenCue_GreenProbe_Bottom,GreenGaborBoth.png,RedGaborBoth.png,GreenGaborDisappearBottom.png,RedGaborBoth.png,Green.mp3,green,bottom,46,46,0,,,,0,46,46,67,1067.4636595000047,,,,,,,,,,,,,,,,bottom,,,,,,,,1067.4480238750111,1068.1641556250106,1068.1643220000115,1073.4137475830066,1073.4202577079996,1074.6637907080003,1074.667144291001,1075.1477698330127,1075.1485224580101,1076.864485375001,allgreen,FinalRedContrast,FinalGreenContrast,1076.868666208,1078.297926500003,4,041726nc,001,2026-04-17_14h20.04.204,priming,,2026.1.3,60.01212244847201,2026-04-17 14h20.04.537162 -0700,
GG_non_riv_catch_RedCue_GreenProbe_Top,GreenGaborBoth.png,Blank.png,GreenGaborDisappearTop.png,Blank.png,Red.mp3,red,top,47,47,0,,,,0,47,47,76,1078.3135830829997,,,,,,,,,,,,,,,,top,,,,,,,,1078.29969616601,1079.5141731250042,1079.5143386660056,1084.7638374580129,1084.7694730830117,1086.0138288750022,1086.0171237910108,1087.031041500013,1087.0342939580005,1087.814739333,allgreen,FinalRedContrast,FinalGreenContrast,1087.8164698330074,1088.4319282500073,5,041726nc,001,2026-04-17_14h20.04.204,priming,,2026.1.3,60.01212244847201,2026-04-17 14h20.04.537162 -0700,
GR_Incongruent_RedCue_GreenProbe_Bottom,GreenGaborBoth.png,RedGaborBoth.png,GreenGaborDisappearBottom.png,RedGaborBoth.png,Red.mp3,red,bottom,48,48,0,,,,0,48,48,69,1088.4471194159996,,,,,,,,,,,,,,,,bottom,,,,,,,,1088.4320449160005,1088.9642891660042,1088.9644526660122,1094.2138398750103,1094.2203950830008,1095.4637924160052,1095.466427958003,1095.964300000007,1095.966229541009,1101.5979731250118,allgreen,FinalRedContrast,FinalGreenContrast,1101.6021567499993,1103.4147373330052,3,041726nc,001,2026-04-17_14h20.04.204,priming,,2026.1.3,60.01212244847201,2026-04-17 14h20.04.537162 -0700,
GR_Congruent_RedCue_RedProbe_Top,GreenGaborBoth.png,RedGaborBoth.png,GreenGaborBoth.png,RedGaborDisappearTop.png,Red.mp3,red,top,49,49,0,,,,0,49,49,24,1103.4304374580097,,,,,,,,,,,,,,,,top,,,,,,,,1103.4148534580017,1103.7808551250055,1103.7810171660094,1109.0305356250028,1109.0371626250126,1110.2805470410094,1110.2843210830033,1114.3145445410046,1114.317719416009,1116.08151420801,mostlyred,FinalRedContrast,FinalGreenContrast,1116.084850625004,1119.3814727910067,3,041726nc,001,2026-04-17_14h20.04.204,priming,,2026.1.3,60.01212244847201,2026-04-17 14h20.04.537162 -0700,
GR_Congruent_RedCue_RedProbe_Top,GreenGaborBoth.png,RedGaborBoth.png,GreenGaborBoth.png,RedGaborDisappearTop.png,Red.mp3,red,top,50,50,0,,,,0,50,50,0,1119.397202541004,,,,,,,,,,,,,,,,top,,,,,,,,1119.3815894580039,1119.6977229160111,1119.6978850830055,1124.9474819160096,1124.954015291005,1126.1974000000046,1126.2003813750052,1127.0644184580015,1127.0674481660099,1128.1148017910018,mostlyred,FinalRedContrast,FinalGreenContrast,1128.1184694160038,1129.7314830410032,5,041726nc,001,2026-04-17_14h20.04.204,priming,,2026.1.3,60.01212244847201,2026-04-17 14h20.04.537162 -0700,
GR_Congruent_GreenCue_GreenProbe_Top,GreenGaborBoth.png,RedGaborBoth.png,GreenGaborDisappearTop.png,RedGaborBoth.png,Green.mp3,green,top,51,51,0,,,,0,51,51,18,1129.7472141250037,,,,,,,,,,,,,,,,top,,,,,,,,1129.7333972910128,1131.0645150410128,1131.0646803750133,1136.3140317500074,1136.3206573750067,1137.5640696250048,1137.5668440410082,1138.7978061250033,1138.8011650410044,1140.1314575830038,mostlygreen,FinalRedContrast,FinalGreenContrast,1140.1353449580056,1141.3482120830013,4,041726nc,001,2026-04-17_14h20.04.204,priming,,2026.1.3,60.01212244847201,2026-04-17 14h20.04.537162 -0700,
GR_Congruent_RedCue_RedProbe_Top,GreenGaborBoth.png,RedGaborBoth.png,GreenGaborBoth.png,RedGaborDisappearTop.png,Red.mp3,red,top,52,52,0,,,,0,52,52,8,1141.3639101660083,,,,,,,,,,,,,,,,top,,,,,,,,1141.3498575830017,1142.1143210410082,1142.1144848330005,1147.3641201660066,1147.3706695410074,1148.614190916007,1148.617941458011,1150.18126883301,1150.1837315000012,1152.8483043330052,evensplit,FinalRedContrast,FinalGreenContrast,1152.8513547500042,1155.6983228750032,4,041726nc,001,2026-04-17_14h20.04.204,priming,,2026.1.3,60.01212244847201,2026-04-17 14h20.04.537162 -0700,
GR_Congruent_GreenCue_GreenProbe_Top,GreenGaborBoth.png,RedGaborBoth.png,GreenGaborDisappearTop.png,RedGaborBoth.png,Green.mp3,green,top,53,53,0,,,,0,53,53,10,1155.713963000002,,,,,,,,,,,,,,,,bottom,,,,,,,,1155.7002513750049,1156.031120041007,1156.0312834159995,1161.2808187080082,1161.2873771660088,1162.5308309579996,1162.5350824580091,1164.9978952500096,1165.0014352080034,1166.081622291007,mostlyred,FinalRedContrast,FinalGreenContrast,1166.0851592500112,1166.3816255830025,2,041726nc,001,2026-04-17_14h20.04.204,priming,,2026.1.3,60.01212244847201,2026-04-17 14h20.04.537162 -0700,
GR_Incongruent_RedCue_GreenProbe_Bottom,GreenGaborBoth.png,RedGaborBoth.png,GreenGaborDisappearBottom.png,RedGaborBoth.png,Red.mp3,red,bottom,54,54,0,,,,0,54,54,61,1166.3973205410002,,,,,,,,,,,,,,,,bottom,,,,,,,,1166.3832911250065,1167.7645066250116,1167.7646775410103,1173.0140949160123,1173.0204542499996,1174.264239000011,1174.2670882500097,1176.6146579160122,1176.616918041007,1178.8649951660045,mostlyred,FinalRedContrast,FinalGreenContrast,1178.869637958007,1180.3150938330073,3,041726nc,001,2026-04-17_14h20.04.204,priming,,2026.1.3,60.01212244847201,2026-04-17 14h20.04.537162 -0700,
GR_Incongruent_GreenCue_RedProbe_Bottom,GreenGaborBoth.png,RedGaborBoth.png,GreenGaborBoth.png,RedGaborDisappearBottom.png,Green.mp3,green,bottom,55,55,0,,,,0,55,55,71,1180.3308951250074,,,,,,,,,,,,,,,,bottom,,,,,,,,1180.3170034580107,1180.697887500006,1180.6980500000063,1185.947632041003,1185.9551993750065,1187.1976382499997,1187.1999037500063,1190.2313758750097,1190.2337679160119,1192.6650380000065,mostlyred,FinalRedContrast,FinalGreenContrast,1192.6685447910131,1195.3484899160103,2,041726nc,001,2026-04-17_14h20.04.204,priming,,2026.1.3,60.01212244847201,2026-04-17 14h20.04.537162 -0700,
GR_Congruent_RedCue_RedProbe_Top,GreenGaborBoth.png,RedGaborBoth.png,GreenGaborBoth.png,RedGaborDisappearTop.png,Red.mp3,red,top,56,56,0,,,,0,56,56,40,1195.3640771250066,,,,,,,,,,,,,,,,top,,,,,,,,1195.3501477500104,1195.6814298750105,1195.6815977500082,1200.930917375008,1200.939098666,1202.181058000002,1202.1842053330038,1203.098168541008,1203.1013189580117,1203.765002583008,mostlyred,FinalRedContrast,FinalGreenContrast,1203.7692452910123,1205.3651730410056,4,041726nc,001,2026-04-17_14h20.04.204,priming,,2026.1.3,60.01212244847201,2026-04-17 14h20.04.537162 -0700,
GR_Congruent_GreenCue_GreenProbe_Top,GreenGaborBoth.png,RedGaborBoth.png,GreenGaborDisappearTop.png,RedGaborBoth.png,Green.mp3,green,top,57,57,0,,,,0,57,57,50,1205.380848041008,,,,,,,,,,,,,,,,top,,,,,,,,1205.3671853330015,1205.8480235410098,1205.8481912499992,1211.097697833,1211.1052075830085,1212.347770916007,1212.350950041,1215.114785208003,1215.117961875003,1216.8155864160071,mostlyred,FinalRedContrast,FinalGreenContrast,1216.818451625004,1218.7819531250134,3,041726nc,001,2026-04-17_14h20.04.204,priming,,2026.1.3,60.01212244847201,2026-04-17 14h20.04.537162 -0700,
GR_Congruent_RedCue_RedProbe_Bottom,GreenGaborBoth.png,RedGaborBoth.png,GreenGaborBoth.png,RedGaborDisappearBottom.png,Red.mp3,red,bottom,58,58,0,,,,0,58,58,1,1218.7975998750044,,,,,,,,,,,,,,,,bottom,,,,,,,,1218.783648416007,1219.031681916007,1219.0318555000122,1224.281106333001,1224.2879211660038,1225.5310885830113,1225.5344247080066,1227.448133708007,1227.450482375003,1228.71515525,mostlyred,FinalRedContrast,FinalGreenContrast,1228.719372208012,1232.048627000011,4,041726nc,001,2026-04-17_14h20.04.204,priming,,2026.1.3,60.01212244847201,2026-04-17 14h20.04.537162 -0700,
GR_Incongruent_RedCue_GreenProbe_Top,GreenGaborBoth.png,RedGaborBoth.png,GreenGaborDisappearTop.png,RedGaborBoth.png,Red.mp3,red,top,59,59,0,,,,0,59,59,20,1232.064271375013,,,,,,,,,,,,,,,,bottom,,,,,,,,1232.0487430000067,1232.415128875,1232.415302791007,1237.6642850830103,1237.6711421660002,1238.914621916003,1238.9173043750052,1241.0983102080063,1241.1003083329997,1242.2653294580086,mostlyred,FinalRedContrast,FinalGreenContrast,1242.2690865410113,1244.1152662500099,3,041726nc,001,2026-04-17_14h20.04.204,priming,,2026.1.3,60.01212244847201,2026-04-17 14h20.04.537162 -0700,
GR_Incongruent_RedCue_GreenProbe_Top,GreenGaborBoth.png,RedGaborBoth.png,GreenGaborDisappearTop.png,RedGaborBoth.png,Red.mp3,red,top,60,60,0,,,,0,60,60,12,1244.131125083004,,,,,,,,,,,,,,,,top,,,,,,,,1244.1153816250007,1244.5149240000028,1244.5150865410105,1249.7645442080102,1249.771069666007,1251.0144791660132,1251.0178650000016,1251.6650298750028,1251.6673013750114,1253.465438875006,mostlyred,FinalRedContrast,FinalGreenContrast,1253.4683162500005,1254.398697291006,5,041726nc,001,2026-04-17_14h20.04.204,priming,,2026.1.3,60.01212244847201,2026-04-17 14h20.04.537162 -0700,
GR_Incongruent_GreenCue_RedProbe_Top,GreenGaborBoth.png,RedGaborBoth.png,GreenGaborBoth.png,RedGaborDisappearTop.png,Green.mp3,green,top,61,61,0,,,,0,61,61,38,1254.4144427080028,,,,,,,,,,,,,,,,top,,,,,,,,1254.4005799580045,1254.7148542080104,1254.7150170830137,1259.9645317079994,1259.9711300410127,1261.214476041001,1261.2174455410131,1261.648404958003,1261.651501875007,1263.3152527910133,mostlyred,FinalRedContrast,FinalGreenContrast,1263.3189725410048,1264.4319470000046,5,041726nc,001,2026-04-17_14h20.04.204,priming,,2026.1.3,60.01212244847201,2026-04-17 14h20.04.537162 -0700,
GR_Congruent_GreenCue_GreenProbe_Bottom,GreenGaborBoth.png,RedGaborBoth.png,GreenGaborDisappearBottom.png,RedGaborBoth.png,Green.mp3,green,bottom,62,62,0,,,,0,62,62,35,1264.4478346250107,,,,,,,,,,,,,,,,bottom,,,,,,,,1264.4320627080015,1265.0148229580082,1265.0149860830134,1270.264627416007,1270.2722962910047,1271.5146675830038,1271.5165812080086,1272.148435250012,1272.1515219580033,1273.415881500012,mostlyred,FinalRedContrast,FinalGreenContrast,1273.4188455830008,1276.565479916011,5,041726nc,001,2026-04-17_14h20.04.204,priming,,2026.1.3,60.01212244847201,2026-04-17 14h20.04.537162 -0700,
GR_Congruent_GreenCue_GreenProbe_Top,GreenGaborBoth.png,RedGaborBoth.png,GreenGaborDisappearTop.png,RedGaborBoth.png,Green.mp3,green,top,63,63,0,,,,0,63,63,2,1276.5811837910005,,,,,,,,,,,,,,,,top,,,,,,,,1276.5655965410115,1277.0651987500023,1277.0653731660132,1282.3146411660127,1282.3211193330062,1283.5645865410042,1283.5667635000136,1284.2984336250083,1284.301151333013,1286.2487743750098,mostlygreen,FinalRedContrast,FinalGreenContrast,1286.2523040830129,1289.3154076250066,5,041726nc,001,2026-04-17_14h20.04.204,priming,,2026.1.3,60.01212244847201,2026-04-17 14h20.04.537162 -0700,
GR_Congruent_GreenCue_GreenProbe_Bottom,GreenGaborBoth.png,RedGaborBoth.png,GreenGaborDisappearBottom.png,RedGaborBoth.png,Green.mp3,green,bottom,64,64,0,,,,0,64,64,19,1289.3312918750016,,,,,,,,,,,,,,,,bottom,,,,,,,,1289.3155225000082,1289.6483511250117,1289.648515375011,1294.8979674160073,1294.9045651250053,1296.147992750004,1296.150006833006,1298.3985062080028,1298.4017780410068,1300.3488823330117,evensplit,FinalRedContrast,FinalGreenContrast,1300.3521910830023,1301.8323377500055,4,041726nc,001,2026-04-17_14h20.04.204,priming,,2026.1.3,60.01212244847201,2026-04-17 14h20.04.537162 -0700,
GR_Congruent_RedCue_RedProbe_Bottom,GreenGaborBoth.png,RedGaborBoth.png,GreenGaborBoth.png,RedGaborDisappearBottom.png,Red.mp3,red,bottom,65,65,0,,,,0,65,65,57,1301.848046375002,,,,,,,,,,,,,,,,bottom,,,,,,,,1301.8340169580042,1302.1818640830024,1302.1820305410074,1307.4314695409994,1307.439211541001,1308.6814950830012,1308.684692875002,1309.9986307910003,1310.001034166009,1311.5822770000086,mostlyred,FinalRedContrast,FinalGreenContrast,1311.586470041002,1312.8989157500037,4,041726nc,001,2026-04-17_14h20.04.204,priming,,2026.1.3,60.01212244847201,2026-04-17 14h20.04.537162 -0700,
GR_Incongruent_GreenCue_RedProbe_Bottom,GreenGaborBoth.png,RedGaborBoth.png,GreenGaborBoth.png,RedGaborDisappearBottom.png,Green.mp3,green,bottom,66,66,0,,,,0,66,66,63,1312.9147240410093,,,,,,,,,,,,,,,,top,,,,,,,,1312.900793208013,1313.1818353330018,1313.1820007500064,1318.4314561659994,1318.4380407499993,1319.681490166011,1319.6849983749999,1321.2488248330046,1321.2495294580003,1323.8989959580067,mostlygreen,FinalRedContrast,FinalGreenContrast,1323.9021568330063,1325.2989595830004,3,041726nc,001,2026-04-17_14h20.04.204,priming,,2026.1.3,60.01212244847201,2026-04-17 14h20.04.537162 -0700,
GR_Congruent_RedCue_RedProbe_Bottom,GreenGaborBoth.png,RedGaborBoth.png,GreenGaborBoth.png,RedGaborDisappearBottom.png,Red.mp3,red,bottom,67,67,0,,,,0,67,67,25,1325.3146732080058,,,,,,,,,,,,,,,,bottom,,,,,,,,1325.3007394580054,1325.565074875005,1325.5652403750137,1330.8147097910114,1330.8211282910052,1332.064750458012,1332.0673033330095,1343.7820261250017,1343.7851230410015,1345.599114541008,evensplit,FinalRedContrast,FinalGreenContrast,1345.6027217080118,1347.5994470830046,3,041726nc,001,2026-04-17_14h20.04.204,priming,,2026.1.3,60.01212244847201,2026-04-17 14h20.04.537162 -0700,
GR_Incongruent_GreenCue_RedProbe_Top,GreenGaborBoth.png,RedGaborBoth.png,GreenGaborBoth.png,RedGaborDisappearTop.png,Green.mp3,green,top,68,68,0,,,,0,68,68,54,1347.614762875004,,,,,,,,,,,,,,,,top,,,,,,,,1347.6014809160115,1348.0319658330118,1348.0321287910047,1353.281646500007,1353.288573458005,1354.5316686250007,1354.5345885000133,1355.59910141601,1355.601402750006,1356.8990556250064,mostlyred,FinalRedContrast,FinalGreenContrast,1356.9028193330014,1358.749161041007,5,041726nc,001,2026-04-17_14h20.04.204,priming,,2026.1.3,60.01212244847201,2026-04-17 14h20.04.537162 -0700,
GR_Congruent_RedCue_RedProbe_Top,GreenGaborBoth.png,RedGaborBoth.png,GreenGaborBoth.png,RedGaborDisappearTop.png,Red.mp3,red,top,69,69,0,,,,0,69,69,32,1358.764850083011,,,,,,,,,,,,,,,,top,,,,,,,,1358.750821708003,1359.1320743329998,1359.1322393330047,1364.381733458009,1364.388313500007,1365.6317772080074,1365.6354269580042,1366.3825619160052,1366.3830823750031,1367.8658130000113,mostlyred,FinalRedContrast,FinalGreenContrast,1367.869392083012,1370.199241416005,4,041726nc,001,2026-04-17_14h20.04.204,priming,,2026.1.3,60.01212244847201,2026-04-17 14h20.04.537162 -0700,
GR_Incongruent_RedCue_GreenProbe_Top,GreenGaborBoth.png,RedGaborBoth.png,GreenGaborDisappearTop.png,RedGaborBoth.png,Red.mp3,red,top,70,70,0,,,,0,70,70,44,1370.2149068330036,,,,,,,,,,,,,,,,bottom,,,,,,,,1370.1993561660056,1370.5486687910015,1370.5488322500023,1375.7983567080082,1375.806013458001,1377.0483872910117,1377.0509285830049,1378.5823978330009,1378.5851896660024,1380.3829169160017,mostlyred,FinalRedContrast,FinalGreenContrast,1380.3859880410018,1381.6992012500123,3,041726nc,001,2026-04-17_14h20.04.204,priming,,2026.1.3,60.01212244847201,2026-04-17 14h20.04.537162 -0700,
GR_Incongruent_GreenCue_RedProbe_Bottom,GreenGaborBoth.png,RedGaborBoth.png,GreenGaborBoth.png,RedGaborDisappearBottom.png,Green.mp3,green,bottom,71,71,0,,,,0,71,71,55,1381.7149871660076,,,,,,,,,,,,,,,,bottom,,,,,,,,1381.7011269580107,1382.0153446250042,1382.0155091250053,1387.2650608750118,1387.2717642909993,1388.5150850410137,1388.5185312500107,1389.032162625008,1389.0345183750032,1390.182443208003,mostlyred,FinalRedContrast,FinalGreenContrast,1390.186071166012,1391.2825855410047,5,041726nc,001,2026-04-17_14h20.04.204,priming,,2026.1.3,60.01212244847201,2026-04-17 14h20.04.537162 -0700,
GR_Congruent_GreenCue_GreenProbe_Top,GreenGaborBoth.png,RedGaborBoth.png,GreenGaborDisappearTop.png,RedGaborBoth.png,Green.mp3,green,top,72,72,0,,,,0,72,72,58,1391.2982822910126,,,,,,,,,,,,,,,,top,,,,,,,,1391.282699708012,1391.8154645000031,1391.815626666008,1397.0651243330067,1397.0716782500094,1398.315160750004,1398.318195666012,1399.7823647500045,1399.7848502910056,1401.7659646250104,evensplit,FinalRedContrast,FinalGreenContrast,1401.767850958,1403.4826485000085,4,041726nc,001,2026-04-17_14h20.04.204,priming,,2026.1.3,60.01212244847201,2026-04-17 14h20.04.537162 -0700,
GR_Incongruent_GreenCue_RedProbe_Bottom,GreenGaborBoth.png,RedGaborBoth.png,GreenGaborBoth.png,RedGaborDisappearBottom.png,Green.mp3,green,bottom,73,73,0,,,,0,73,73,7,1403.498459666007,,,,,,,,,,,,,,,,bottom,,,,,,,,1403.4827639160067,1403.9155210830068,1403.9156869580038,1409.1651896250114,1409.1717173330107,1410.4151729580044,1410.4186080830113,1412.0322950410045,1412.0357670000085,1414.3826740830118,mostlyred,FinalRedContrast,FinalGreenContrast,1414.3856495000073,1416.3825928750011,4,041726nc,001,2026-04-17_14h20.04.204,priming,,2026.1.3,60.01212244847201,2026-04-17 14h20.04.537162 -0700,
GR_Incongruent_RedCue_GreenProbe_Top,GreenGaborBoth.png,RedGaborBoth.png,GreenGaborDisappearTop.png,RedGaborBoth.png,Red.mp3,red,top,74,74,0,,,,0,74,74,28,1416.3983807910117,,,,,,,,,,,,,,,,top,,,,,,,,1416.384276583005,1416.682450458,1416.6826835829997,1421.9317633330065,1421.938227458013,1423.1819800830126,1423.1849874580075,1426.782324541011,1426.7844191660115,1429.0327947080077,evensplit,FinalRedContrast,FinalGreenContrast,1429.0364919160056,1430.0494648750027,3,041726nc,001,2026-04-17_14h20.04.204,priming,,2026.1.3,60.01212244847201,2026-04-17 14h20.04.537162 -0700,
GR_Congruent_GreenCue_GreenProbe_Bottom,GreenGaborBoth.png,RedGaborBoth.png,GreenGaborDisappearBottom.png,RedGaborBoth.png,Green.mp3,green,bottom,75,75,0,,,,0,75,75,27,1430.0652007080062,,,,,,,,,,,,,,,,bottom,,,,,,,,1430.0513817500032,1430.5824998750031,1430.5826713330025,1435.831979791008,1435.8395722080022,1437.0819862080098,1437.0843090830022,1439.432448208012,1439.435308458007,1441.0828259580012,evensplit,FinalRedContrast,FinalGreenContrast,1441.0851322080125,1442.4160746660054,4,041726nc,001,2026-04-17_14h20.04.204,priming,,2026.1.3,60.01212244847201,2026-04-17 14h20.04.537162 -0700,
GR_Incongruent_GreenCue_RedProbe_Bottom,GreenGaborBoth.png,RedGaborBoth.png,GreenGaborBoth.png,RedGaborDisappearBottom.png,Green.mp3,green,bottom,76,76,0,,,,0,76,76,47,1442.431908041006,,,,,,,,,,,,,,,,bottom,,,,,,,,1442.4161922500061,1442.799178583009,1442.7993396660022,1448.0486302500067,1448.056370958002,1449.2986414160114,1449.3007596660027,1451.2490937910043,1451.2515898750135,1452.832799833006,evensplit,FinalRedContrast,FinalGreenContrast,1452.8367539580067,1455.583169333011,4,041726nc,001,2026-04-17_14h20.04.204,priming,,2026.1.3,60.01212244847201,2026-04-17 14h20.04.537162 -0700,
GR_Congruent_GreenCue_GreenProbe_Bottom,GreenGaborBoth.png,RedGaborBoth.png,GreenGaborDisappearBottom.png,RedGaborBoth.png,Green.mp3,green,bottom,77,77,0,,,,0,77,77,43,1455.5985957910016,,,,,,,,,,,,,,,,bottom,,,,,,,,1455.5832869580045,1455.9155882910127,1455.9157503330061,1461.1653704580094,1461.171927125004,1462.4154938749998,1462.4182152499998,1463.9829106660036,1463.9852687080129,1465.4828903750022,mostlyred,FinalRedContrast,FinalGreenContrast,1465.4863014160073,1466.3999245410087,4,041726nc,001,2026-04-17_14h20.04.204,priming,,2026.1.3,60.01212244847201,2026-04-17 14h20.04.537162 -0700,
GR_Congruent_GreenCue_GreenProbe_Bottom,GreenGaborBoth.png,RedGaborBoth.png,GreenGaborDisappearBottom.png,RedGaborBoth.png,Green.mp3,green,bottom,78,78,0,,,,0,78,78,59,1466.4152706250024,,,,,,,,,,,,,,,,bottom,,,,,,,,1466.4000422500103,1466.732420625005,1466.7325836250093,1471.9821265000064,1471.9886835409998,1473.2320715829992,1473.2351000410126,1473.8992517910083,1473.9019972080132,1474.449594375008,mostlyred,FinalRedContrast,FinalGreenContrast,1474.4535541660007,1475.8661691250018,5,041726nc,001,2026-04-17_14h20.04.204,priming,,2026.1.3,60.01212244847201,2026-04-17 14h20.04.537162 -0700,
GR_Congruent_GreenCue_GreenProbe_Top,GreenGaborBoth.png,RedGaborBoth.png,GreenGaborDisappearTop.png,RedGaborBoth.png,Green.mp3,green,top,79,79,0,,,,0,79,79,66,1475.8820825000003,,,,,,,,,,,,,,,,top,,,,,,,,1475.8662844160135,1476.2658137500111,1476.265980250013,1481.5154250830092,1481.5229914160009,1482.76536166601,1482.7678355000098,1484.9994050410023,1485.0019233750063,1485.866242041011,mostlygreen,FinalRedContrast,FinalGreenContrast,1485.8696940830123,1486.1329648329993,1,041726nc,001,2026-04-17_14h20.04.204,priming,,2026.1.3,60.01212244847201,2026-04-17 14h20.04.537162 -0700,
GR_Incongruent_RedCue_GreenProbe_Top,GreenGaborBoth.png,RedGaborBoth.png,GreenGaborDisappearTop.png,RedGaborBoth.png,Red.mp3,red,top,80,0,1,,,,1,0,80,12,1486.1486120410118,,,,,,,,,,,,,,,,top,,,,,,,,1486.134767458003,1495.0493957080034,1495.0495619160065,1500.2989156660042,1500.3055706250016,1501.5489587910124,1501.5524720829999,1503.1495869580103,1503.152044250004,1505.3830415410048,mostlyred,FinalRedContrast,FinalGreenContrast,1505.3860662500083,1507.6497570409992,4,041726nc,001,2026-04-17_14h20.04.204,priming,,2026.1.3,60.01212244847201,2026-04-17 14h20.04.537162 -0700,
GR_Incongruent_RedCue_GreenProbe_Top,GreenGaborBoth.png,RedGaborBoth.png,GreenGaborDisappearTop.png,RedGaborBoth.png,Red.mp3,red,top,81,1,1,,,,1,1,81,68,1507.6653977910028,,,,,,,,,,,,,,,,top,,,,,,,,1507.649871875008,1508.1325760830077,1508.1327378330025,1513.382262625004,1513.3888481660106,1514.632267041001,1514.6360703750106,1516.8993474160088,1516.9025217910093,1519.7667100410035,mostlygreen,FinalRedContrast,FinalGreenContrast,1519.7698049580067,1520.8497796660085,5,041726nc,001,2026-04-17_14h20.04.204,priming,,2026.1.3,60.01212244847201,2026-04-17 14h20.04.537162 -0700,
GR_Congruent_RedCue_RedProbe_Bottom,GreenGaborBoth.png,RedGaborBoth.png,GreenGaborBoth.png,RedGaborDisappearBottom.png,Red.mp3,red,bottom,82,2,1,,,,1,2,82,49,1520.8653813750134,,,,,,,,,,,,,,,,bottom,,,,,,,,1520.8498950409994,1521.09927195801,1521.0994365000079,1526.348991166,1526.3565865830024,1527.5990300000121,1527.6017132080015,1531.08286679101,1531.0858119160112,1533.449858041,mostlyred,FinalRedContrast,FinalGreenContrast,1533.4529900000052,1535.500224333009,3,041726nc,001,2026-04-17_14h20.04.204,priming,,2026.1.3,60.01212244847201,2026-04-17 14h20.04.537162 -0700,
GR_Congruent_GreenCue_GreenProbe_Bottom,GreenGaborBoth.png,RedGaborBoth.png,GreenGaborDisappearBottom.png,RedGaborBoth.png,Green.mp3,green,bottom,83,3,1,,,,1,3,83,27,1535.5155652910034,,,,,,,,,,,,,,,,bottom,,,,,,,,1535.5021561250032,1536.1996042080136,1536.1997771250026,1541.4490248330112,1541.4556149580021,1542.6990320410114,1542.702799375009,1543.599463458013,1543.6016674580023,1544.9831193330028,evensplit,FinalRedContrast,FinalGreenContrast,1544.9869490410056,1546.5668721250113,4,041726nc,001,2026-04-17_14h20.04.204,priming,,2026.1.3,60.01212244847201,2026-04-17 14h20.04.537162 -0700,
RR_non_riv_catch_GreenCue_RedProbe_Bottom,Blank.png,RedGaborBoth.png,Blank.png,RedGaborDisappearBottom.png,Green.mp3,green,bottom,84,4,1,,,,1,4,84,75,1546.5822104160034,,,,,,,,,,,,,,,,bottom,,,,,,,,1546.5669893750019,1546.783150416013,1546.7833899160032,1552.032269000003,1552.0381174580107,1553.2824261250062,1553.2863760000037,1554.199532166007,1554.201953708005,1555.4669108330127,allred,FinalRedContrast,FinalGreenContrast,1555.4689173750085,1556.3499842080055,5,041726nc,001,2026-04-17_14h20.04.204,priming,,2026.1.3,60.01212244847201,2026-04-17 14h20.04.537162 -0700,
GR_Incongruent_GreenCue_RedProbe_Bottom,GreenGaborBoth.png,RedGaborBoth.png,GreenGaborBoth.png,RedGaborDisappearBottom.png,Green.mp3,green,bottom,85,5,1,,,,1,5,85,7,1556.3657216249994,,,,,,,,,,,,,,,,bottom,,,,,,,,1556.3500989580061,1556.8330534580018,1556.8332283330092,1562.0824910830124,1562.089001500004,1563.3324801660056,1563.335211166006,1566.0162237080076,1566.0197859580076,1568.1499299580028,mostlygreen,FinalRedContrast,FinalGreenContrast,1568.153652375011,1570.367021833008,4,041726nc,001,2026-04-17_14h20.04.204,priming,,2026.1.3,60.01212244847201,2026-04-17 14h20.04.537162 -0700,
GR_Incongruent_RedCue_GreenProbe_Bottom,GreenGaborBoth.png,RedGaborBoth.png,GreenGaborDisappearBottom.png,RedGaborBoth.png,Red.mp3,red,bottom,86,6,1,,,,1,6,86,37,1570.3825066249992,,,,,,,,,,,,,,,,bottom,,,,,,,,1570.3686702500127,1570.6161116250005,1570.616277625013,1575.8658640000067,1575.8724613750092,1577.1157803750102,1577.119288291011,1578.0328770830092,1578.0364400410035,1579.0167080410029,mostlygreen,FinalRedContrast,FinalGreenContrast,1579.0196922080067,1580.3499128750118,5,041726nc,001,2026-04-17_14h20.04.204,priming,,2026.1.3,60.01212244847201,2026-04-17 14h20.04.537162 -0700,
GR_Congruent_RedCue_RedProbe_Bottom,GreenGaborBoth.png,RedGaborBoth.png,GreenGaborBoth.png,RedGaborDisappearBottom.png,Red.mp3,red,bottom,87,7,1,,,,1,7,87,9,1580.3657530410128,,,,,,,,,,,,,,,,bottom,,,,,,,,1580.350026791013,1580.5994470410078,1580.5996090410044,1585.8490829580114,1585.855778875004,1587.0992854159995,1587.1017620830098,1589.1163636660058,1589.1183710410114,1589.9666765000002,evensplit,FinalRedContrast,FinalGreenContrast,1589.9696087910124,1591.466723458012,3,041726nc,001,2026-04-17_14h20.04.204,priming,,2026.1.3,60.01212244847201,2026-04-17 14h20.04.537162 -0700,
GR_Congruent_RedCue_RedProbe_Top,GreenGaborBoth.png,RedGaborBoth.png,GreenGaborBoth.png,RedGaborDisappearTop.png,Red.mp3,red,top,88,8,1,,,,1,8,88,64,1591.4824954580108,,,,,,,,,,,,,,,,bottom,,,,,,,,1591.4668379580107,1591.7672620000085,1591.7674711660075,1597.0159375830117,1597.0236851250083,1598.2658740000043,1598.2685797080048,1600.082992708005,1600.0848397500085,1602.1168527500122,allgreen,FinalRedContrast,FinalGreenContrast,1602.1203967500041,1602.4334917500091,1,041726nc,001,2026-04-17_14h20.04.204,priming,,2026.1.3,60.01212244847201,2026-04-17 14h20.04.537162 -0700,
GG_non_riv_catch_GreenCue_GreenProbe_Top,GreenGaborBoth.png,Blank.png,GreenGaborDisappearTop.png,Blank.png,Green.mp3,green,top,89,9,1,,,,1,9,89,78,1602.4491812500055,,,,,,,,,,,,,,,,top,,,,,,,,1602.4354114160087,1610.866280458009,1610.866445333013,1616.1158339160029,1616.1226578750066,1617.365914250011,1617.3681592909998,1617.9502017500054,1617.9518480410043,1620.6835705410049,allgreen,FinalRedContrast,FinalGreenContrast,1620.6869087080122,1622.1875823330047,5,041726nc,001,2026-04-17_14h20.04.204,priming,,2026.1.3,60.01212244847201,2026-04-17 14h20.04.537162 -0700,
GR_Incongruent_RedCue_GreenProbe_Bottom,GreenGaborBoth.png,RedGaborBoth.png,GreenGaborDisappearBottom.png,RedGaborBoth.png,Red.mp3,red,bottom,90,10,1,,,,1,10,90,21,1622.1993188330089,,,,,,,,,,,,,,,,bottom,,,,,,,,1622.1894134160102,1623.3501459580002,1623.3503926250123,1628.5994153330103,1628.6062013750052,1629.8495457080135,1629.8529642909998,1630.5164774580044,1630.5191903750092,1632.8835503750015,mostlygreen,FinalRedContrast,FinalGreenContrast,1632.887327458011,1634.2168872080074,5,041726nc,001,2026-04-17_14h20.04.204,priming,,2026.1.3,60.01212244847201,2026-04-17 14h20.04.537162 -0700,
GR_Incongruent_GreenCue_RedProbe_Top,GreenGaborBoth.png,RedGaborBoth.png,GreenGaborBoth.png,RedGaborDisappearTop.png,Green.mp3,green,top,91,11,1,,,,1,11,91,62,1634.2327070000028,,,,,,,,,,,,,,,,top,,,,,,,,1634.2187912080117,1634.5497583750112,1634.5499206250097,1639.7995304159995,1639.8072457500093,1641.049423000004,1641.0523715830059,1643.7498830000113,1643.7528086250095,1646.266791083006,mostlyred,FinalRedContrast,FinalGreenContrast,1646.2707709160022,1649.5501449160074,4,041726nc,001,2026-04-17_14h20.04.204,priming,,2026.1.3,60.01212244847201,2026-04-17 14h20.04.537162 -0700,
GR_Congruent_GreenCue_GreenProbe_Top,GreenGaborBoth.png,RedGaborBoth.png,GreenGaborDisappearTop.png,RedGaborBoth.png,Green.mp3,green,top,92,12,1,,,,1,12,92,26,1649.565888000012,,,,,,,,,,,,,,,,top,,,,,,,,1649.550261166005,1650.2167702080042,1650.2169837500114,1655.4662038750103,1655.4727164580108,1656.7162638750015,1656.7200648330036,1657.850047208005,1657.8530895410076,1671.7337500410067,mostlygreen,FinalRedContrast,FinalGreenContrast,1671.7367662500037,1673.5003760410036,4,041726nc,001,2026-04-17_14h20.04.204,priming,,2026.1.3,60.01212244847201,2026-04-17 14h20.04.537162 -0700,
GR_Incongruent_GreenCue_RedProbe_Top,GreenGaborBoth.png,RedGaborBoth.png,GreenGaborBoth.png,RedGaborDisappearTop.png,Green.mp3,green,top,93,13,1,,,,1,13,93,14,1673.5161224580079,,,,,,,,,,,,,,,,bottom,,,,,,,,1673.500494250009,1673.967056916008,1673.9672816250095,1679.2162834580085,1679.2227965830098,1680.4661722500023,1680.4696090409998,1682.616863083007,1682.6200923330034,1684.2671788330044,allgreen,FinalRedContrast,FinalGreenContrast,1684.2704855830088,1685.4338177080062,3,041726nc,001,2026-04-17_14h20.04.204,priming,,2026.1.3,60.01212244847201,2026-04-17 14h20.04.537162 -0700,
GR_Congruent_GreenCue_GreenProbe_Bottom,GreenGaborBoth.png,RedGaborBoth.png,GreenGaborDisappearBottom.png,RedGaborBoth.png,Green.mp3,green,bottom,94,14,1,,,,1,14,94,43,1685.4495806250052,,,,,,,,,,,,,,,,bottom,,,,,,,,1685.4339330830117,1685.766761625011,1685.766924333002,1691.0163334579993,1691.0228537910007,1692.2663538750057,1692.2698330410058,1693.8834489160072,1693.8871127080056,1698.9338481660088,allgreen,FinalRedContrast,FinalGreenContrast,1698.9366613750026,1701.1338194160053,5,041726nc,001,2026-04-17_14h20.04.204,priming,,2026.1.3,60.01212244847201,2026-04-17 14h20.04.537162 -0700,
GG_non_riv_catch_GreenCue_GreenProbe_Bottom,GreenGaborBoth.png,Blank.png,GreenGaborDisappearBottom.png,Blank.png,Green.mp3,green,bottom,95,15,1,,,,1,15,95,79,1701.1495767910092,,,,,,,,,,,,,,,,bottom,,,,,,,,1701.1339347910107,1701.4833363330108,1701.4834986250062,1706.7329391250096,1706.738437166001,1707.9830461250094,1707.984913583001,1710.3835195410065,1710.3861852080008,1713.2005485410045,allgreen,FinalRedContrast,FinalGreenContrast,1713.2034467500052,1714.517207958008,5,041726nc,001,2026-04-17_14h20.04.204,priming,,2026.1.3,60.01212244847201,2026-04-17 14h20.04.537162 -0700,
GR_Congruent_RedCue_RedProbe_Bottom,GreenGaborBoth.png,RedGaborBoth.png,GreenGaborBoth.png,RedGaborDisappearBottom.png,Red.mp3,red,bottom,96,16,1,,,,1,16,96,17,1714.5330749580025,,,,,,,,,,,,,,,,bottom,,,,,,,,1714.5188697910053,1715.7166937910079,1715.7168591250083,1720.9663451660017,1720.972778166004,1722.2165737080068,1722.2199005410075,1723.7669000410096,1723.7698007080035,1725.9672649999993,mostlyred,FinalRedContrast,FinalGreenContrast,1725.9697084580112,1729.267296791004,4,041726nc,001,2026-04-17_14h20.04.204,priming,,2026.1.3,60.01212244847201,2026-04-17 14h20.04.537162 -0700,
GR_Congruent_GreenCue_GreenProbe_Bottom,GreenGaborBoth.png,RedGaborBoth.png,GreenGaborDisappearBottom.png,RedGaborBoth.png,Green.mp3,green,bottom,97,17,1,,,,1,17,97,59,1729.2830287079996,,,,,,,,,,,,,,,,bottom,,,,,,,,1729.2691795000137,1730.5002069580078,1730.5003718750086,1735.749777666002,1735.7562880410114,1736.999841375,1737.0031183750107,1737.550198375,1737.5533639580099,1738.7510068330012,allgreen,FinalRedContrast,FinalGreenContrast,1738.7535179580009,1739.9843465000013,5,041726nc,001,2026-04-17_14h20.04.204,priming,,2026.1.3,60.01212244847201,2026-04-17 14h20.04.537162 -0700,
GR_Incongruent_RedCue_GreenProbe_Bottom,GreenGaborBoth.png,RedGaborBoth.png,GreenGaborDisappearBottom.png,RedGaborBoth.png,Red.mp3,red,bottom,98,18,1,,,,1,18,98,53,1739.9997430830117,,,,,,,,,,,,,,,,bottom,,,,,,,,1739.9862543330091,1740.3506963750115,1740.3508689580049,1745.5998624580097,1745.6063712910109,1746.849937875013,1746.852304208005,1748.9669882910093,1748.9703275000065,1750.5343929580122,evensplit,FinalRedContrast,FinalGreenContrast,1750.5362652500044,1752.250715208007,4,041726nc,001,2026-04-17_14h20.04.204,priming,,2026.1.3,60.01212244847201,2026-04-17 14h20.04.537162 -0700,
GR_Congruent_GreenCue_GreenProbe_Bottom,GreenGaborBoth.png,RedGaborBoth.png,GreenGaborDisappearBottom.png,RedGaborBoth.png,Green.mp3,green,bottom,99,19,1,,,,1,19,99,11,1752.2665218330076,,,,,,,,,,,,,,,,bottom,,,,,,,,1752.2527160830068,1752.8003050410043,1752.8004686660133,1758.0499344160053,1758.056377416011,1759.300031375009,1759.303973208007,1761.5508307500131,1761.5528497910127,1762.8007892080059,evensplit,FinalRedContrast,FinalGreenContrast,1762.8044988330075,1764.5840719160042,5,041726nc,001,2026-04-17_14h20.04.204,priming,,2026.1.3,60.01212244847201,2026-04-17 14h20.04.537162 -0700,
GR_Congruent_GreenCue_GreenProbe_Bottom,GreenGaborBoth.png,RedGaborBoth.png,GreenGaborDisappearBottom.png,RedGaborBoth.png,Green.mp3,green,bottom,100,20,1,,,,1,20,100,3,1764.5998283750087,,,,,,,,,,,,,,,,bottom,,,,,,,,1764.5841900000087,1765.534136208007,1765.5343137080054,1770.7832305000047,1770.789689125013,1772.0332674160018,1772.0369333330018,1773.8670349160093,1773.8694142500026,1776.5674368750042,mostlygreen,FinalRedContrast,FinalGreenContrast,1776.5717652910098,1779.3174514580023,3,041726nc,001,2026-04-17_14h20.04.204,priming,,2026.1.3,60.01212244847201,2026-04-17 14h20.04.537162 -0700,
GR_Congruent_RedCue_RedProbe_Top,GreenGaborBoth.png,RedGaborBoth.png,GreenGaborBoth.png,RedGaborDisappearTop.png,Red.mp3,red,top,101,21,1,,,,1,21,101,16,1779.3333200410125,,,,,,,,,,,,,,,,top,,,,,,,,1779.3191302080086,1779.6671073330072,1779.6672719160124,1784.9167418330035,1784.9232855410082,1786.1667305830051,1786.1693981660064,1788.7339051660092,1788.7366871660051,1791.5507857080083,evensplit,FinalRedContrast,FinalGreenContrast,1791.5542748330045,1794.9512128330098,4,041726nc,001,2026-04-17_14h20.04.204,priming,,2026.1.3,60.01212244847201,2026-04-17 14h20.04.537162 -0700,
GR_Congruent_GreenCue_GreenProbe_Top,GreenGaborBoth.png,RedGaborBoth.png,GreenGaborDisappearTop.png,RedGaborBoth.png,Green.mp3,green,top,102,22,1,,,,1,22,102,18,1794.966660791004,,,,,,,,,,,,,,,,top,,,,,,,,1794.9531353750062,1795.3504132500093,1795.3505760410044,1800.6001181660104,1800.60662008301,1801.8501439160027,1801.853231416011,1802.7344334160007,1802.7356364580046,1804.0842467500042,allgreen,FinalRedContrast,FinalGreenContrast,1804.0878850000008,1805.5345625000045,5,041726nc,001,2026-04-17_14h20.04.204,priming,,2026.1.3,60.01212244847201,2026-04-17 14h20.04.537162 -0700,
GR_Congruent_GreenCue_GreenProbe_Bottom,GreenGaborBoth.png,RedGaborBoth.png,GreenGaborDisappearBottom.png,RedGaborBoth.png,Green.mp3,green,bottom,103,23,1,,,,1,23,103,35,1805.5500785830081,,,,,,,,,,,,,,,,bottom,,,,,,,,1805.5346800830011,1805.8505262500112,1805.8506908750132,1811.100081666009,1811.1066293330077,1812.3502429580112,1812.3521538750065,1813.9839853750018,1813.9868497080024,1818.9511752500111,mostlyred,FinalRedContrast,FinalGreenContrast,1818.9534666660038,1830.9176053750125,4,041726nc,001,2026-04-17_14h20.04.204,priming,,2026.1.3,60.01212244847201,2026-04-17 14h20.04.537162 -0700,
GR_Incongruent_RedCue_GreenProbe_Bottom,GreenGaborBoth.png,RedGaborBoth.png,GreenGaborDisappearBottom.png,RedGaborBoth.png,Red.mp3,red,bottom,104,24,1,,,,1,24,104,5,1830.9334120410058,,,,,,,,,,,,,,,,bottom,,,,,,,,1830.9194097080035,1831.4505662910087,1831.4507311660127,1836.7002889580035,1836.7067489580077,1837.9501882910117,1837.9526435000007,1843.0673033330095,1843.0699444160127,1845.234468958006,evensplit,FinalRedContrast,FinalGreenContrast,1845.2379133750073,1848.1179336250061,2,041726nc,001,2026-04-17_14h20.04.204,priming,,2026.1.3,60.01212244847201,2026-04-17 14h20.04.537162 -0700,
GR_Congruent_RedCue_RedProbe_Bottom,GreenGaborBoth.png,RedGaborBoth.png,GreenGaborBoth.png,RedGaborDisappearBottom.png,Red.mp3,red,bottom,105,25,1,,,,1,25,105,41,1848.1335594580014,,,,,,,,,,,,,,,,bottom,,,,,,,,1848.1180500830087,2106.151923291007,2106.152099208004,2111.4013650000124,2111.410294625006,2112.65137329101,2112.6541276660137,2114.2517137910036,2114.2547600830003,2118.5521764160076,evensplit,FinalRedContrast,FinalGreenContrast,2118.5559377910104,2120.6688503750047,4,041726nc,001,2026-04-17_14h20.04.204,priming,,2026.1.3,60.01212244847201,2026-04-17 14h20.04.537162 -0700,
GR_Incongruent_RedCue_GreenProbe_Top,GreenGaborBoth.png,RedGaborBoth.png,GreenGaborDisappearTop.png,RedGaborBoth.png,Red.mp3,red,top,106,26,1,,,,1,26,106,4,2120.6846137910034,,,,,,,,,,,,,,,,top,,,,,,,,2120.6689694160013,2123.7516947910044,2123.751858708012,2129.001381500013,2129.008658125007,2130.2514364160015,2130.253587625004,2131.4185935000132,2131.421710458002,2134.1523015830026,evensplit,FinalRedContrast,FinalGreenContrast,2134.1558167500043,2135.3026893750066,4,041726nc,001,2026-04-17_14h20.04.204,priming,,2026.1.3,60.01212244847201,2026-04-17 14h20.04.537162 -0700,
GR_Congruent_RedCue_RedProbe_Top,GreenGaborBoth.png,RedGaborBoth.png,GreenGaborBoth.png,RedGaborDisappearTop.png,Red.mp3,red,top,107,27,1,,,,1,27,107,32,2135.3179797910125,,,,,,,,,,,,,,,,top,,,,,,,,2135.3028030000132,2135.7518336659996,2135.75199837501,2141.001526541004,2141.0091489160113,2142.2514749580005,2142.25389037501,2142.7689333750022,2142.7695841660025,2145.0523607080104,evensplit,FinalRedContrast,FinalGreenContrast,2145.055948625013,2145.9528739160014,4,041726nc,001,2026-04-17_14h20.04.204,priming,,2026.1.3,60.01212244847201,2026-04-17 14h20.04.537162 -0700,
GR_Congruent_RedCue_RedProbe_Top,GreenGaborBoth.png,RedGaborBoth.png,GreenGaborBoth.png,RedGaborDisappearTop.png,Red.mp3,red,top,108,28,1,,,,1,28,108,56,2145.968106875007,,,,,,,,,,,,,,,,top,,,,,,,,2145.9529967910057,2146.3684078330116,2146.3685747080017,2151.6184771660046,2151.6267110000044,2152.868140208011,2152.8705472500005,2154.3021227080026,2154.3044598330016,2156.135758375007,mostlyred,FinalRedContrast,FinalGreenContrast,2156.1384776660125,2156.985722291007,4,041726nc,001,2026-04-17_14h20.04.204,priming,,2026.1.3,60.01212244847201,2026-04-17 14h20.04.537162 -0700,
GG_non_riv_catch_RedCue_GreenProbe_Top,GreenGaborBoth.png,Blank.png,GreenGaborDisappearTop.png,Blank.png,Red.mp3,red,top,109,29,1,,,,1,29,109,76,2157.0014054580097,,,,,,,,,,,,,,,,top,,,,,,,,2156.985843875009,2157.268505208005,2157.268681625006,2162.5182243330055,2162.525111750001,2163.768301916003,2163.7711401250126,2164.8190280000126,2164.8215831250127,2166.1692632080085,allgreen,FinalRedContrast,FinalGreenContrast,2166.171750916008,2167.9025858330133,5,041726nc,001,2026-04-17_14h20.04.204,priming,,2026.1.3,60.01212244847201,2026-04-17 14h20.04.537162 -0700,
GR_Congruent_GreenCue_GreenProbe_Top,GreenGaborBoth.png,RedGaborBoth.png,GreenGaborDisappearTop.png,RedGaborBoth.png,Green.mp3,green,top,110,30,1,,,,1,30,110,66,2167.9181385410047,,,,,,,,,,,,,,,,top,,,,,,,,2167.9047040830046,2168.4359738330095,2168.436174125003,2173.6849419580103,2173.6934528750135,2174.935090916013,2174.937919166012,2175.535481500003,2175.538309333002,2179.5859807080124,mostlyred,FinalRedContrast,FinalGreenContrast,2179.588414916012,2183.002599750005,3,041726nc,001,2026-04-17_14h20.04.204,priming,,2026.1.3,60.01212244847201,2026-04-17 14h20.04.537162 -0700,
GR_Congruent_RedCue_RedProbe_Top,GreenGaborBoth.png,RedGaborBoth.png,GreenGaborBoth.png,RedGaborDisappearTop.png,Red.mp3,red,top,111,31,1,,,,1,31,111,24,2183.018113375001,,,,,,,,,,,,,,,,top,,,,,,,,2183.004562125003,2183.5353956250037,2183.5355759580125,2188.784904250002,2188.793429000012,2190.0348977910035,2190.0381587910088,2192.4854058330093,2192.4876090410107,2193.6525168330118,mostlyred,FinalRedContrast,FinalGreenContrast,2193.6549238330044,2197.952545416003,4,041726nc,001,2026-04-17_14h20.04.204,priming,,2026.1.3,60.01212244847201,2026-04-17 14h20.04.537162 -0700,
GR_Congruent_GreenCue_GreenProbe_Bottom,GreenGaborBoth.png,RedGaborBoth.png,GreenGaborDisappearBottom.png,RedGaborBoth.png,Green.mp3,green,bottom,112,32,1,,,,1,32,112,67,2197.9681294580078,,,,,,,,,,,,,,,,bottom,,,,,,,,2197.954543083004,2200.8021094580035,2200.8022764160123,2206.051567875009,2206.0605049160076,2207.301656833006,2207.3035659160087,2207.918786375012,2207.9207757910044,2210.285836750001,mostlyred,FinalRedContrast,FinalGreenContrast,2210.288617625003,2211.1858692910027,3,041726nc,001,2026-04-17_14h20.04.204,priming,,2026.1.3,60.01212244847201,2026-04-17 14h20.04.537162 -0700,
GR_Incongruent_RedCue_GreenProbe_Top,GreenGaborBoth.png,RedGaborBoth.png,GreenGaborDisappearTop.png,RedGaborBoth.png,Red.mp3,red,top,113,33,1,,,,1,33,113,52,2211.2014845000085,,,,,,,,,,,,,,,,top,,,,,,,,2211.1877500830014,2211.452010000008,2211.452186416005,2216.701688416011,2216.709167625013,2217.951735625,2217.954135041,2218.8522697910084,2218.854955916002,2220.269380791011,evensplit,FinalRedContrast,FinalGreenContrast,2220.2717392080085,2222.102766833006,4,041726nc,001,2026-04-17_14h20.04.204,priming,,2026.1.3,60.01212244847201,2026-04-17 14h20.04.537162 -0700,
GR_Incongruent_GreenCue_RedProbe_Top,GreenGaborBoth.png,RedGaborBoth.png,GreenGaborBoth.png,RedGaborDisappearTop.png,Green.mp3,green,top,114,34,1,,,,1,34,114,46,2222.118228541003,,,,,,,,,,,,,,,,top,,,,,,,,2222.1049773330014,2222.3188364160014,2222.3190093750018,2227.5684255410015,2227.576999708006,2228.8184000000037,2228.8208270410105,2232.3023692910065,2232.3050486660068,2235.369299500002,mostlyred,FinalRedContrast,FinalGreenContrast,2235.3731709160056,2236.569386333009,3,041726nc,001,2026-04-17_14h20.04.204,priming,,2026.1.3,60.01212244847201,2026-04-17 14h20.04.537162 -0700,
GR_Congruent_RedCue_RedProbe_Top,GreenGaborBoth.png,RedGaborBoth.png,GreenGaborBoth.png,RedGaborDisappearTop.png,Red.mp3,red,top,115,35,1,,,,1,35,115,0,2236.584907250013,,,,,,,,,,,,,,,,top,,,,,,,,2236.5712300410087,2237.0358038330014,2237.035990583012,2242.2850418330054,2242.29342487501,2243.5349985409994,2243.5384715830005,2245.352175166001,2245.35501429101,2246.4360032910045,mostlyred,FinalRedContrast,FinalGreenContrast,2246.438836000001,2249.0193488330115,4,041726nc,001,2026-04-17_14h20.04.204,priming,,2026.1.3,60.01212244847201,2026-04-17 14h20.04.537162 -0700,
GR_Congruent_RedCue_RedProbe_Bottom,GreenGaborBoth.png,RedGaborBoth.png,GreenGaborBoth.png,RedGaborDisappearBottom.png,Red.mp3,red,bottom,116,36,1,,,,1,36,116,33,2249.034976250012,,,,,,,,,,,,,,,,bottom,,,,,,,,2249.0194752080133,2249.3521328750066,2249.3523097080033,2254.601731875009,2254.6100982909993,2255.8516670410027,2255.8543635410024,2256.435775750011,2256.4387989160023,2261.0026053750044,mostlyred,FinalRedContrast,FinalGreenContrast,2261.005498416009,2262.5359622079995,3,041726nc,001,2026-04-17_14h20.04.204,priming,,2026.1.3,60.01212244847201,2026-04-17 14h20.04.537162 -0700,
GR_Incongruent_GreenCue_RedProbe_Top,GreenGaborBoth.png,RedGaborBoth.png,GreenGaborBoth.png,RedGaborDisappearTop.png,Green.mp3,green,top,117,37,1,,,,1,37,117,70,2262.5515576250036,,,,,,,,,,,,,,,,bottom,,,,,,,,2262.5379721659992,2263.0021685829997,2263.00234529101,2268.251727833005,2268.259328500004,2269.5018898330018,2269.504171708002,2275.1357830830093,2275.138568458002,2278.8864250410115,evensplit,FinalRedContrast,FinalGreenContrast,2278.888485000003,2281.269538583001,2,041726nc,001,2026-04-17_14h20.04.204,priming,,2026.1.3,60.01212244847201,2026-04-17 14h20.04.537162 -0700,
RR_non_riv_catch_GreenCue_RedProbe_Top,Blank.png,RedGaborBoth.png,Blank.png,RedGaborDisappearTop.png,Green.mp3,green,top,118,38,1,,,,1,38,118,74,2281.284996750008,,,,,,,,,,,,,,,,top,,,,,,,,2281.2696610410057,2281.6356948750035,2281.6358685830055,2286.885431875009,2286.893867000006,2288.1352115830086,2288.1383001659997,2289.385873666004,2289.388565541012,2290.3860050410003,allred,FinalRedContrast,FinalGreenContrast,2290.3888821660075,2291.2526249580114,5,041726nc,001,2026-04-17_14h20.04.204,priming,,2026.1.3,60.01212244847201,2026-04-17 14h20.04.537162 -0700,
RR_non_riv_catch_RedCue_RedProbe_Bottom,Blank.png,RedGaborBoth.png,Blank.png,RedGaborDisappearBottom.png,Red.mp3,red,bottom,119,39,1,,,,1,39,119,73,2291.268400208006,,,,,,,,,,,,,,,,bottom,,,,,,,,2291.254299916007,2293.8688926250034,2293.8690568330057,2299.118365541013,2299.1253914160043,2300.368614625011,2300.3716416660027,2300.852293666001,2300.855097083011,2301.886035708012,allred,FinalRedContrast,FinalGreenContrast,2301.8894564580114,2302.802581833006,5,041726nc,001,2026-04-17_14h20.04.204,priming,,2026.1.3,60.01212244847201,2026-04-17 14h20.04.537162 -0700,
GR_Incongruent_RedCue_GreenProbe_Top,GreenGaborBoth.png,RedGaborBoth.png,GreenGaborDisappearTop.png,RedGaborBoth.png,Red.mp3,red,top,120,40,1,,,,1,40,120,60,2302.8184889580007,,,,,,,,,,,,,,,,top,,,,,,,,2302.8026979580027,2303.2690134160075,2303.2691835830046,2308.5184444160113,2308.527191958012,2309.7686413750052,2309.7718274159997,2312.602332791008,2312.6049088750005,2314.219281583006,mostlygreen,FinalRedContrast,FinalGreenContrast,2314.223146083008,2315.4192717080005,5,041726nc,001,2026-04-17_14h20.04.204,priming,,2026.1.3,60.01212244847201,2026-04-17 14h20.04.537162 -0700,
GR_Incongruent_RedCue_GreenProbe_Top,GreenGaborBoth.png,RedGaborBoth.png,GreenGaborDisappearTop.png,RedGaborBoth.png,Red.mp3,red,top,121,41,1,,,,1,41,121,20,2315.435080416006,,,,,,,,,,,,,,,,top,,,,,,,,2315.419387291011,2315.7522318750125,2315.7523977500095,2321.0019664160063,2321.0084525830025,2322.2519689580076,2322.2540688330046,2324.7191813330137,2324.722256291003,2326.2528620830126,evensplit,FinalRedContrast,FinalGreenContrast,2326.2561171250127,2327.1027978330094,2,041726nc,001,2026-04-17_14h20.04.204,priming,,2026.1.3,60.01212244847201,2026-04-17 14h20.04.537162 -0700,
GR_Incongruent_GreenCue_RedProbe_Bottom,GreenGaborBoth.png,RedGaborBoth.png,GreenGaborBoth.png,RedGaborDisappearBottom.png,Green.mp3,green,bottom,122,42,1,,,,1,42,122,47,2327.1185079999996,,,,,,,,,,,,,,,,bottom,,,,,,,,2327.1047462910064,2333.3356533750048,2333.335816125007,2338.5853900830116,2338.591890666008,2339.8352700000105,2339.838008458013,2340.3524835000135,2340.354660958008,2342.119426958001,mostlyred,FinalRedContrast,FinalGreenContrast,2342.122928625002,2343.019468041006,3,041726nc,001,2026-04-17_14h20.04.204,priming,,2026.1.3,60.01212244847201,2026-04-17 14h20.04.537162 -0700,
GR_Incongruent_RedCue_GreenProbe_Bottom,GreenGaborBoth.png,RedGaborBoth.png,GreenGaborDisappearBottom.png,RedGaborBoth.png,Red.mp3,red,bottom,123,43,1,,,,1,43,123,13,2343.035253375012,,,,,,,,,,,,,,,,bottom,,,,,,,,2343.021130500012,2343.3690542080003,2343.369219375003,2348.6186836250126,2348.626778500009,2349.868696375008,2349.871487291006,2350.385937708008,2350.3880012080044,2351.9861495000077,evensplit,FinalRedContrast,FinalGreenContrast,2351.9900547080033,2353.1527422910003,3,041726nc,001,2026-04-17_14h20.04.204,priming,,2026.1.3,60.01212244847201,2026-04-17 14h20.04.537162 -0700,
GR_Incongruent_GreenCue_RedProbe_Top,GreenGaborBoth.png,RedGaborBoth.png,GreenGaborBoth.png,RedGaborDisappearTop.png,Green.mp3,green,top,124,44,1,,,,1,44,124,54,2353.168595041003,,,,,,,,,,,,,,,,top,,,,,,,,2353.1546153750096,2353.6523269160098,2353.6524944580015,2358.902129375012,2358.9086918329995,2360.152085708003,2360.1543548330083,2365.969266375003,2365.9723003750114,2368.436287000004,evensplit,FinalRedContrast,FinalGreenContrast,2368.439520708009,2368.6694897910056,1,041726nc,001,2026-04-17_14h20.04.204,priming,,2026.1.3,60.01212244847201,2026-04-17 14h20.04.537162 -0700,
RR_non_riv_catch_RedCue_RedProbe_Top,Blank.png,RedGaborBoth.png,Blank.png,RedGaborDisappearTop.png,Red.mp3,red,top,125,45,1,,,,1,45,125,72,2368.6852424160024,,,,,,,,,,,,,,,,top,,,,,,,,2368.6712489160127,2370.3357118750137,2370.3358777079993,2375.5855358750123,2375.592967125005,2376.835379250013,2376.8383541660005,2377.985840333,2377.9891473330063,2378.8196397499996,allred,FinalRedContrast,FinalGreenContrast,2378.8227711250074,2379.7362392080104,5,041726nc,001,2026-04-17_14h20.04.204,priming,,2026.1.3,60.01212244847201,2026-04-17 14h20.04.537162 -0700,
GR_Incongruent_GreenCue_RedProbe_Bottom,GreenGaborBoth.png,RedGaborBoth.png,GreenGaborBoth.png,RedGaborDisappearBottom.png,Green.mp3,green,bottom,126,46,1,,,,1,46,126,55,2379.7520535830117,,,,,,,,,,,,,,,,bottom,,,,,,,,2379.7381637910003,2380.1191210000106,2380.1192833330133,2385.368883416013,2385.3767573750083,2386.6188204580103,2386.6215425410046,2387.4359538749995,2387.4383088750037,2390.102891500006,mostlyred,FinalRedContrast,FinalGreenContrast,2390.1062333330046,2391.3695975410083,4,041726nc,001,2026-04-17_14h20.04.204,priming,,2026.1.3,60.01212244847201,2026-04-17 14h20.04.537162 -0700,
GR_Incongruent_RedCue_GreenProbe_Bottom,GreenGaborBoth.png,RedGaborBoth.png,GreenGaborDisappearBottom.png,RedGaborBoth.png,Red.mp3,red,bottom,127,47,1,,,,1,47,127,45,2391.3854305830027,,,,,,,,,,,,,,,,bottom,,,,,,,,2391.3712519580004,2392.0358564160124,2392.036023583001,2397.2855818330136,2397.293220125008,2398.535655041007,2398.5386577910103,2399.1027337080013,2399.1055836250016,2400.2530633749993,mostlyred,FinalRedContrast,FinalGreenContrast,2400.256119041005,2401.3530881660117,4,041726nc,001,2026-04-17_14h20.04.204,priming,,2026.1.3,60.01212244847201,2026-04-17 14h20.04.537162 -0700,
GR_Congruent_GreenCue_GreenProbe_Top,GreenGaborBoth.png,RedGaborBoth.png,GreenGaborDisappearTop.png,RedGaborBoth.png,Green.mp3,green,top,128,48,1,,,,1,48,128,2,2401.3687532910117,,,,,,,,,,,,,,,,top,,,,,,,,2401.3551390830107,2401.735831958009,2401.73599500001,2406.9856175830064,2406.993098166,2408.2355382910027,2408.2379487080034,2408.8027156250027,2408.8055602910026,2409.9029449160007,mostlygreen,FinalRedContrast,FinalGreenContrast,2409.9065479160054,2412.0864475410053,4,041726nc,001,2026-04-17_14h20.04.204,priming,,2026.1.3,60.01212244847201,2026-04-17 14h20.04.537162 -0700,
GR_Congruent_RedCue_RedProbe_Bottom,GreenGaborBoth.png,RedGaborBoth.png,GreenGaborBoth.png,RedGaborDisappearBottom.png,Red.mp3,red,bottom,129,49,1,,,,1,49,129,57,2412.1022025410057,,,,,,,,,,,,,,,,bottom,,,,,,,,2412.0880923750083,2412.4195161660027,2412.4196917080117,2417.6689811660035,2417.67561395801,2418.9188759579993,2418.922132500011,2419.836476416007,2419.8375176660047,2420.603081333,mostlyred,FinalRedContrast,FinalGreenContrast,2420.606799125002,2422.1363846250024,3,041726nc,001,2026-04-17_14h20.04.204,priming,,2026.1.3,60.01212244847201,2026-04-17 14h20.04.537162 -0700,
GR_Congruent_RedCue_RedProbe_Top,GreenGaborBoth.png,RedGaborBoth.png,GreenGaborBoth.png,RedGaborDisappearTop.png,Red.mp3,red,top,130,50,1,,,,1,50,130,40,2422.152234416004,,,,,,,,,,,,,,,,top,,,,,,,,2422.1365028330038,2422.519301541004,2422.5194654160005,2427.7688453750015,2427.7752657910023,2429.018961833004,2429.0217776250065,2432.5194623330026,2432.5229701250064,2434.403204833012,mostlyred,FinalRedContrast,FinalGreenContrast,2434.4068750000006,2436.936534916007,2,041726nc,001,2026-04-17_14h20.04.204,priming,,2026.1.3,60.01212244847201,2026-04-17 14h20.04.537162 -0700,
GR_Incongruent_GreenCue_RedProbe_Top,GreenGaborBoth.png,RedGaborBoth.png,GreenGaborBoth.png,RedGaborDisappearTop.png,Green.mp3,green,top,131,51,1,,,,1,51,131,6,2436.952257875004,,,,,,,,,,,,,,,,top,,,,,,,,2436.938441041013,2437.252683291008,2437.252846208008,2442.5023938330123,2442.508848083002,2443.7523661250016,2443.7545860410028,2444.6195555000013,2444.6218450000015,2446.0531701660075,mostlyred,FinalRedContrast,FinalGreenContrast,2446.056010750006,2447.6864714580006,4,041726nc,001,2026-04-17_14h20.04.204,priming,,2026.1.3,60.01212244847201,2026-04-17 14h20.04.537162 -0700,
GR_Congruent_GreenCue_GreenProbe_Top,GreenGaborBoth.png,RedGaborBoth.png,GreenGaborDisappearTop.png,RedGaborBoth.png,Green.mp3,green,top,132,52,1,,,,1,52,132,42,2447.702287458,,,,,,,,,,,,,,,,top,,,,,,,,2447.686588291006,2447.902795291011,2447.9029585829994,2453.1524210410134,2453.1588805830106,2454.4023466250073,2454.405207791002,2455.286150125001,2455.2895430410135,2457.086575625013,mostlygreen,FinalRedContrast,FinalGreenContrast,2457.09003570801,2459.3365081250085,4,041726nc,001,2026-04-17_14h20.04.204,priming,,2026.1.3,60.01212244847201,2026-04-17 14h20.04.537162 -0700,
