label,LstartingStim,RstartingStim,LvisualStim,RvisualStim,audioCue,visualCue,probe_loc,thisN,thisTrialN,thisRepN,staircase.thisTrialN,staircase.stepSize,staircase.intensity,trials.thisRepN,trials.thisTrialN,trials.thisN,trials.thisIndex,thisRow.t,notes,piloting,stim offset,continue_resp.keys,continue_resp.rt,continue_resp.duration,fixation.started,fixation.stopped,greenContrast,redContrast,adjusted_contrast.started,adjusted_contrast.stopped,staircase_response.started,staircase_response.stopped,stair_response,probe_response,staircase.response,prevTrial,isRed,isReversal,cumReversal,contrastArray,contrastAverage,start_trial.started,start_trial.stopped,cue.started,cue.stopped,probe.started,probe.stopped,probe_response.started,probe_response.stopped,subjective_response.started,subjective_response.stopped,subj_response,RedContrast,GreenContrast,vividness_response.started,vividness_response.stopped,vivid_response,participant,session,date,expName,expVersion,psychopyVersion,frameRate,expStart,
,,,,,,,,,,,,,,,,,,,,False,0.30599999999999994,,,,,,,,,,,,,,,,,,,,,,,,,,,,,,,,,,,,,042126sb,001,2026-04-21_14h14.00.801,priming,,2026.1.3,59.93088470071801,2026-04-21 14h14.01.131467 -0700,
,,,,,,,,,,,,,,,,,,,,,,space,21.126407332980307,None,,,,,,,,,,,,,,,,,,,,,,,,,,,,,,,,,,042126sb,001,2026-04-21_14h14.00.801,priming,,2026.1.3,59.93088470071801,2026-04-21 14h14.01.131467 -0700,
,,,,,,,,,,,0,0.2,0.5,,,,,43.274603583995486,,,,,,,43.25876729199081,44.258106499997666,0.5,0.5,44.26385312498314,46.00803412499954,46.00971420897986,54.408874041982926,allred,red,1,1000,1,0,0,[],0,,,,,,,,,,,,,,,,,042126sb,001,2026-04-21_14h14.00.801,priming,,2026.1.3,59.93088470071801,2026-04-21 14h14.01.131467 -0700,
,,,,,,,,,,,1,0.1,0.3,,,,,54.424789999990026,,,,,,,54.40913045898196,55.40818408399355,0.7,0.3,55.41312866698718,57.15818766699522,57.15949933399679,58.55882920898148,mostlygreen,green,0,1,0,1,1,[],0,,,,,,,,,,,,,,,,,042126sb,001,2026-04-21_14h14.00.801,priming,,2026.1.3,59.93088470071801,2026-04-21 14h14.01.131467 -0700,
,,,,,,,,,,,2,0.1,0.4,,,,,58.574805333977565,,,,,,,58.55909883399727,59.558144666982116,0.6,0.4,59.56176516698906,61.30821724998532,61.309565249976,63.99221016699448,mostlyred,red,1,0,1,1,2,[],0,,,,,,,,,,,,,,,,,042126sb,001,2026-04-21_14h14.00.801,priming,,2026.1.3,59.93088470071801,2026-04-21 14h14.01.131467 -0700,
,,,,,,,,,,,3,0.05,0.30000000000000004,,,,,64.0082252919965,,,,,,,63.99245633400278,64.99145412500366,0.7,0.30000000000000004,64.99495579197537,66.74146670897608,66.74308287497843,68.45881199999712,mostlygreen,green,0,1,0,1,3,[],0,,,,,,,,,,,,,,,,,042126sb,001,2026-04-21_14h14.00.801,priming,,2026.1.3,59.93088470071801,2026-04-21 14h14.01.131467 -0700,
,,,,,,,,,,,4,0.05,0.35000000000000003,,,,,68.47481849999167,,,,,,,68.45906287498656,69.45814454197534,0.6499999999999999,0.35000000000000003,69.46167999997851,71.20819462498184,71.21001912499196,72.95893220900325,mostlyred,red,1,0,1,1,4,[],0,,,,,,,,,,,,,,,,,042126sb,001,2026-04-21_14h14.00.801,priming,,2026.1.3,59.93088470071801,2026-04-21 14h14.01.131467 -0700,
,,,,,,,,,,,5,0.025,0.30000000000000004,,,,,72.97483099999954,,,,,,,72.959199334,73.95815666698036,0.7,0.30000000000000004,73.96167637498002,75.7083299169899,75.70973354199668,76.82574433399714,mostlygreen,green,0,1,0,1,5,[],0,,,,,,,,,,,,,,,,,042126sb,001,2026-04-21_14h14.00.801,priming,,2026.1.3,59.93088470071801,2026-04-21 14h14.01.131467 -0700,
,,,,,,,,,,,6,0.025,0.32500000000000007,,,,,76.84149020898622,,,,,,,76.82599933398888,77.82498012497672,0.6749999999999999,0.32500000000000007,77.82851058398956,79.57500266699935,79.57674545899499,80.95900520897703,mostlygreen,green,0,0,0,0,5,[],0,,,,,,,,,,,,,,,,,042126sb,001,2026-04-21_14h14.00.801,priming,,2026.1.3,59.93088470071801,2026-04-21 14h14.01.131467 -0700,
,,,,,,,,,,,7,0.025,0.3500000000000001,,,,,80.97492549999151,,,,,,,80.95925991699914,81.95825358398724,0.6499999999999999,0.3500000000000001,81.96183824999025,83.70820024999557,83.7107766669942,85.15902933399775,mostlygreen,green,0,0,0,0,5,[],0,,,,,,,,,,,,,,,,,042126sb,001,2026-04-21_14h14.00.801,priming,,2026.1.3,59.93088470071801,2026-04-21 14h14.01.131467 -0700,
,,,,,,,,,,,8,0.025,0.3750000000000001,,,,,85.17486304198974,,,,,,,85.15929870898253,86.15832629200304,0.6249999999999999,0.3750000000000001,86.16176937500131,87.90832312498242,87.90999799998826,88.84231929198722,mostlyred,red,1,0,1,1,6,[0.3750000000000001],0.3750000000000001,,,,,,,,,,,,,,,,,042126sb,001,2026-04-21_14h14.00.801,priming,,2026.1.3,59.93088470071801,2026-04-21 14h14.01.131467 -0700,
,,,,,,,,,,,9,0.025,0.3500000000000001,,,,,88.85823299997719,,,,,,,88.84257408400299,89.8416336249793,0.6499999999999999,0.3500000000000001,89.8450547090033,91.59169245898374,91.59296895898296,93.80901124997763,mostlyred,red,1,1,1,0,6,[0.3750000000000001],0.3750000000000001,,,,,,,,,,,,,,,,,042126sb,001,2026-04-21_14h14.00.801,priming,,2026.1.3,59.93088470071801,2026-04-21 14h14.01.131467 -0700,
,,,,,,,,,,,10,0.025,0.32500000000000007,,,,,93.82489783398341,,,,,,,93.80925941700116,94.80829004198313,0.6749999999999999,0.32500000000000007,94.81185362499673,96.55831033398863,96.55992562498432,99.00907154197921,mostlyred,red,1,1,1,0,6,[0.3750000000000001],0.3750000000000001,,,,,,,,,,,,,,,,,042126sb,001,2026-04-21_14h14.00.801,priming,,2026.1.3,59.93088470071801,2026-04-21 14h14.01.131467 -0700,
,,,,,,,,,,,11,0.025,0.30000000000000004,,,,,99.02489524998236,,,,,,,99.00931974998093,100.0083034169802,0.7,0.30000000000000004,100.01175245898776,101.75820287500392,101.7598415419925,103.25907479200396,mostlyred,red,1,1,1,0,6,[0.3750000000000001],0.3750000000000001,,,,,,,,,,,,,,,,,042126sb,001,2026-04-21_14h14.00.801,priming,,2026.1.3,59.93088470071801,2026-04-21 14h14.01.131467 -0700,
,,,,,,,,,,,12,0.025,0.275,,,,,103.27487029199256,,,,,,,103.25938920897897,104.25841329200193,0.725,0.275,104.26189683398115,106.00840591700398,106.01002783398144,109.22586216698983,mostlyred,red,1,1,1,0,6,[0.3750000000000001],0.3750000000000001,,,,,,,,,,,,,,,,,042126sb,001,2026-04-21_14h14.00.801,priming,,2026.1.3,59.93088470071801,2026-04-21 14h14.01.131467 -0700,
,,,,,,,,,,,13,0.025,0.25,,,,,109.24165687497589,,,,,,,109.22614620899549,110.22508683399064,0.75,0.25,110.22866549997707,111.97512633400038,111.9764918339788,112.69243562498013,mostlyred,red,1,1,1,0,6,[0.3750000000000001],0.3750000000000001,,,,,,,,,,,,,,,,,042126sb,001,2026-04-21_14h14.00.801,priming,,2026.1.3,59.93088470071801,2026-04-21 14h14.01.131467 -0700,
,,,,,,,,,,,14,0.025,0.225,,,,,112.7083952089888,,,,,,,112.69268495897995,113.6917897919775,0.775,0.225,113.69534037497942,115.44177545898128,115.44323474998237,116.62583516698214,mostlygreen,green,0,1,0,1,7,"[0.3750000000000001, 0.225]",0.30000000000000004,,,,,,,,,,,,,,,,,042126sb,001,2026-04-21_14h14.00.801,priming,,2026.1.3,59.93088470071801,2026-04-21 14h14.01.131467 -0700,
,,,,,,,,,,,15,0.025,0.25,,,,,116.64169579200097,,,,,,,116.6261504169961,117.62510666699382,0.75,0.25,117.62861420898116,119.37503129200195,119.37694458398619,120.57576700000209,mostlyred,red,1,0,1,1,8,"[0.3750000000000001, 0.225, 0.25]",0.2833333333333334,,,,,,,,,,,,,,,,,042126sb,001,2026-04-21_14h14.00.801,priming,,2026.1.3,59.93088470071801,2026-04-21 14h14.01.131467 -0700,
,,,,,,,,,,,16,0.025,0.225,,,,,120.59170587497647,,,,,,,120.5760177919874,121.57510279197595,0.775,0.225,121.57858962498722,123.3251744589943,123.32678999999189,125.94249079198926,mostlyred,red,1,1,1,0,8,"[0.3750000000000001, 0.225, 0.25]",0.2833333333333334,,,,,,,,,,,,,,,,,042126sb,001,2026-04-21_14h14.00.801,priming,,2026.1.3,59.93088470071801,2026-04-21 14h14.01.131467 -0700,
,,,,,,,,,,,17,0.025,0.2,,,,,125.95834691700293,,,,,,,125.94274479200249,126.94166945898905,0.8,0.2,126.94514358398737,128.691754999978,128.69364374998258,130.60914345897618,mostlyred,red,1,1,1,0,8,"[0.3750000000000001, 0.225, 0.25]",0.2833333333333334,,,,,,,,,,,,,,,,,042126sb,001,2026-04-21_14h14.00.801,priming,,2026.1.3,59.93088470071801,2026-04-21 14h14.01.131467 -0700,
,,,,,,,,,,,18,0.025,0.17500000000000002,,,,,130.62512895898544,,,,,,,130.6094668339938,131.60838833398884,0.825,0.17500000000000002,131.611979334004,133.35846916699666,133.3602547920018,134.7759316249867,mostlygreen,green,0,1,0,1,9,"[0.3750000000000001, 0.225, 0.25, 0.17500000000000002]",0.25625000000000003,,,,,,,,,,,,,,,,,042126sb,001,2026-04-21_14h14.00.801,priming,,2026.1.3,59.93088470071801,2026-04-21 14h14.01.131467 -0700,
,,,,,,,,,,,19,0.025,0.2,,,,,134.79179854199174,,,,,,,134.77618679197622,135.77528512498247,0.8,0.2,135.77873879199615,137.52525358399726,137.52703291698708,139.0426057500008,mostlyred,red,1,0,1,1,10,"[0.3750000000000001, 0.225, 0.25, 0.17500000000000002, 0.2]",0.24500000000000002,,,,,,,,,,,,,,,,,042126sb,001,2026-04-21_14h14.00.801,priming,,2026.1.3,59.93088470071801,2026-04-21 14h14.01.131467 -0700,
,,,,,,,,,,,20,0.025,0.17500000000000002,,,,,139.05838270898676,,,,,,,139.0428623749758,140.0418724170013,0.825,0.17500000000000002,140.04546562497853,141.7918536249781,141.79358724999474,144.20919462500024,mostlygreen,green,0,1,0,1,11,"[0.3750000000000001, 0.225, 0.25, 0.17500000000000002, 0.2, 0.17500000000000002]",0.23333333333333336,,,,,,,,,,,,,,,,,042126sb,001,2026-04-21_14h14.00.801,priming,,2026.1.3,59.93088470071801,2026-04-21 14h14.01.131467 -0700,
,,,,,,,,,,,21,0.025,0.2,,,,,144.22512629200355,,,,,,,144.20945079199737,145.2085773749859,0.8,0.2,145.21207879198482,146.95855549999396,146.96013433398912,149.47591249999823,mostlygreen,green,0,0,0,0,11,"[0.3750000000000001, 0.225, 0.25, 0.17500000000000002, 0.2, 0.17500000000000002]",0.23333333333333336,,,,,,,,,,,,,,,,,042126sb,001,2026-04-21_14h14.00.801,priming,,2026.1.3,59.93088470071801,2026-04-21 14h14.01.131467 -0700,
,,,,,,,,,,,22,0.025,0.225,,,,,149.49181737497565,,,,,,,149.47616708397982,150.47523308399832,0.775,0.225,150.47875358400051,152.2252637920028,152.22698995898827,153.00938833400141,mostlyred,red,1,0,1,1,12,"[0.3750000000000001, 0.225, 0.25, 0.17500000000000002, 0.2, 0.17500000000000002, 0.225]",0.23214285714285718,,,,,,,,,,,,,,,,,042126sb,001,2026-04-21_14h14.00.801,priming,,2026.1.3,59.93088470071801,2026-04-21 14h14.01.131467 -0700,
,,,,,,,,,,,23,0.025,0.2,,,,,153.02519312498043,,,,,,,153.00965904199984,154.008539249975,0.8,0.2,154.01209741699859,155.75853670897777,155.76031549999607,157.7593225419987,mostlygreen,green,0,1,0,1,13,"[0.3750000000000001, 0.225, 0.25, 0.17500000000000002, 0.2, 0.17500000000000002, 0.225, 0.2]",0.22812500000000002,,,,,,,,,,,,,,,,,042126sb,001,2026-04-21_14h14.00.801,priming,,2026.1.3,59.93088470071801,2026-04-21 14h14.01.131467 -0700,
,,,,,,,,,,,24,0.025,0.225,,,,,157.77522416698048,,,,,,,157.75958770897705,158.75859258399578,0.775,0.225,158.76212204198237,160.5086231669993,160.51057837498956,162.02595787498285,mostlygreen,green,0,0,0,0,13,"[0.3750000000000001, 0.225, 0.25, 0.17500000000000002, 0.2, 0.17500000000000002, 0.225, 0.2]",0.22812500000000002,,,,,,,,,,,,,,,,,042126sb,001,2026-04-21_14h14.00.801,priming,,2026.1.3,59.93088470071801,2026-04-21 14h14.01.131467 -0700,
,,,,,,,,,,,25,0.025,0.25,,,,,162.041768916999,,,,,,,162.02621208399069,163.02527604199713,0.75,0.25,163.02884933399037,164.7754382499843,164.77694183398853,166.17609179200372,mostlyred,red,1,0,1,1,14,"[0.3750000000000001, 0.225, 0.25, 0.17500000000000002, 0.2, 0.17500000000000002, 0.225, 0.2, 0.25]",0.23055555555555557,,,,,,,,,,,,,,,,,042126sb,001,2026-04-21_14h14.00.801,priming,,2026.1.3,59.93088470071801,2026-04-21 14h14.01.131467 -0700,
,,,,,,,,,,,26,0.025,0.225,,,,,166.19189754198305,,,,,,,166.17635016699205,167.17525358399143,0.775,0.225,167.17875070899026,168.92540924999048,168.92668999999296,172.62614083397784,mostlyred,red,1,1,1,0,14,"[0.3750000000000001, 0.225, 0.25, 0.17500000000000002, 0.2, 0.17500000000000002, 0.225, 0.2, 0.25]",0.23055555555555557,,,,,,,,,,,,,,,,,042126sb,001,2026-04-21_14h14.00.801,priming,,2026.1.3,59.93088470071801,2026-04-21 14h14.01.131467 -0700,
,,,,,,,,,,,27,0.025,0.2,,,,,172.6420051669993,,,,,,,172.6263934999879,173.62541658399277,0.8,0.2,173.62893229199108,175.37539183397894,175.37661291699624,178.50942354198196,mostlyred,red,1,1,1,0,14,"[0.3750000000000001, 0.225, 0.25, 0.17500000000000002, 0.2, 0.17500000000000002, 0.225, 0.2, 0.25]",0.23055555555555557,,,,,,,,,,,,,,,,,042126sb,001,2026-04-21_14h14.00.801,priming,,2026.1.3,59.93088470071801,2026-04-21 14h14.01.131467 -0700,
,,,,,,,,,,,28,0.025,0.17500000000000002,,,,,178.5253168339841,,,,,,,178.50967858399963,179.50860841700342,0.825,0.17500000000000002,179.5120955419843,181.25863008399028,181.26054649997968,185.39277208398562,mostlygreen,green,0,1,0,1,15,"[0.3750000000000001, 0.225, 0.25, 0.17500000000000002, 0.2, 0.17500000000000002, 0.225, 0.2, 0.25, 0.17500000000000002]",0.225,,,,,,,,,,,,,,,,,042126sb,001,2026-04-21_14h14.00.801,priming,,2026.1.3,59.93088470071801,2026-04-21 14h14.01.131467 -0700,
,,,,,,,,,,,29,0.025,0.2,,,,,185.40860858399537,,,,,,,185.39302729198243,186.39207066700328,0.8,0.2,186.3955957919825,188.1419710420014,188.1438226249884,189.87599508400308,mostlyred,red,1,0,1,1,16,"[0.3750000000000001, 0.225, 0.25, 0.17500000000000002, 0.2, 0.17500000000000002, 0.225, 0.2, 0.25, 0.17500000000000002, 0.2]",0.22272727272727275,,,,,,,,,,,,,,,,,042126sb,001,2026-04-21_14h14.00.801,priming,,2026.1.3,59.93088470071801,2026-04-21 14h14.01.131467 -0700,
,,,,,,,,,,,30,0.025,0.17500000000000002,,,,,189.8919845839846,,,,,,,189.87627608398907,190.87529274998815,0.825,0.17500000000000002,190.87880362497526,192.6252887089795,192.62681420898298,193.75945699997828,mostlygreen,green,0,1,0,1,17,"[0.3750000000000001, 0.225, 0.25, 0.17500000000000002, 0.2, 0.17500000000000002, 0.225, 0.2, 0.25, 0.17500000000000002, 0.2, 0.17500000000000002]",0.21875,,,,,,,,,,,,,,,,,042126sb,001,2026-04-21_14h14.00.801,priming,,2026.1.3,59.93088470071801,2026-04-21 14h14.01.131467 -0700,
,,,,,,,,,,,31,0.025,0.2,,,,,193.77520454197656,,,,,,,193.75972770899534,194.75891245898674,0.8,0.2,194.76241054199636,196.5088591669919,196.51025724998908,197.57615641699522,mostlyred,red,1,0,1,1,18,"[0.3750000000000001, 0.225, 0.25, 0.17500000000000002, 0.2, 0.17500000000000002, 0.225, 0.2, 0.25, 0.17500000000000002, 0.2, 0.17500000000000002, 0.2]",0.2173076923076923,,,,,,,,,,,,,,,,,042126sb,001,2026-04-21_14h14.00.801,priming,,2026.1.3,59.93088470071801,2026-04-21 14h14.01.131467 -0700,
,,,,,,,,,,,32,0.025,0.17500000000000002,,,,,197.5920113750035,,,,,,,197.57641112498823,198.575495416997,0.825,0.17500000000000002,198.57898170899716,200.32551629198133,200.32695479199174,202.25954920897493,mostlyred,red,1,1,1,0,18,"[0.3750000000000001, 0.225, 0.25, 0.17500000000000002, 0.2, 0.17500000000000002, 0.225, 0.2, 0.25, 0.17500000000000002, 0.2, 0.17500000000000002, 0.2]",0.2173076923076923,,,,,,,,,,,,,,,,,042126sb,001,2026-04-21_14h14.00.801,priming,,2026.1.3,59.93088470071801,2026-04-21 14h14.01.131467 -0700,
,,,,,,,,,,,33,0.025,0.15000000000000002,,,,,202.2753545419837,,,,,,,202.25981133399182,203.25886324999738,0.85,0.15000000000000002,203.26232149999123,205.00881216698326,205.01036070898408,206.34283612499712,mostlygreen,green,0,1,0,1,19,"[0.3750000000000001, 0.225, 0.25, 0.17500000000000002, 0.2, 0.17500000000000002, 0.225, 0.2, 0.25, 0.17500000000000002, 0.2, 0.17500000000000002, 0.2, 0.15000000000000002]",0.2125,,,,,,,,,,,,,,,,,042126sb,001,2026-04-21_14h14.00.801,priming,,2026.1.3,59.93088470071801,2026-04-21 14h14.01.131467 -0700,
,,,,,,,,,,,34,0.025,0.17500000000000002,,,,,206.35877466699458,,,,,,,206.34309416697943,207.3420652920031,0.825,0.17500000000000002,207.3454590839974,209.09215991699602,209.0939693339751,210.32668212498538,mostlygreen,green,0,0,0,0,19,"[0.3750000000000001, 0.225, 0.25, 0.17500000000000002, 0.2, 0.17500000000000002, 0.225, 0.2, 0.25, 0.17500000000000002, 0.2, 0.17500000000000002, 0.2, 0.15000000000000002]",0.2125,,,,,,,,,,,,,,,,,042126sb,001,2026-04-21_14h14.00.801,priming,,2026.1.3,59.93088470071801,2026-04-21 14h14.01.131467 -0700,
,,,,,,,,,,,35,0.025,0.2,,,,,210.34202816698235,,,,,,,210.32694249998895,211.3255162089772,0.8,0.2,211.32896774998517,213.07550758399884,213.07713854199392,213.99284416699084,mostlyred,red,1,0,1,1,20,"[0.3750000000000001, 0.225, 0.25, 0.17500000000000002, 0.2, 0.17500000000000002, 0.225, 0.2, 0.25, 0.17500000000000002, 0.2, 0.17500000000000002, 0.2, 0.15000000000000002, 0.2]",0.2116666666666667,,,,,,,,,,,,,,,,,042126sb,001,2026-04-21_14h14.00.801,priming,,2026.1.3,59.93088470071801,2026-04-21 14h14.01.131467 -0700,
,,,,,,,,,,,36,0.025,0.17500000000000002,,,,,214.00876233397867,,,,,,,213.99310083399178,214.99208841699874,0.825,0.17500000000000002,214.9955110839801,216.74217470898293,216.74391291697975,217.55960912498995,mostlygreen,green,0,1,0,1,21,"[0.225, 0.25, 0.17500000000000002, 0.2, 0.17500000000000002, 0.225, 0.2, 0.25, 0.17500000000000002, 0.2, 0.17500000000000002, 0.2, 0.15000000000000002, 0.2, 0.17500000000000002]",0.19833333333333333,,,,,,,,,,,,,,,,,042126sb,001,2026-04-21_14h14.00.801,priming,,2026.1.3,59.93088470071801,2026-04-21 14h14.01.131467 -0700,
,,,,,,,,,,,37,0.025,0.2,,,,,217.57541629197658,,,,,,,217.55986979199224,218.55885379199754,0.8,0.2,218.5624250419787,220.30870704198605,220.3101376669947,221.24301816697698,mostlyred,red,1,0,1,1,22,"[0.25, 0.17500000000000002, 0.2, 0.17500000000000002, 0.225, 0.2, 0.25, 0.17500000000000002, 0.2, 0.17500000000000002, 0.2, 0.15000000000000002, 0.2, 0.17500000000000002, 0.2]",0.19666666666666668,,,,,,,,,,,,,,,,,042126sb,001,2026-04-21_14h14.00.801,priming,,2026.1.3,59.93088470071801,2026-04-21 14h14.01.131467 -0700,
,,,,,,,,,,,38,0.025,0.17500000000000002,,,,,221.2586973749858,,,,,,,221.24329879198922,222.24221237498568,0.825,0.17500000000000002,222.245746917004,223.99205924998387,223.99358520898386,227.45964274997823,mostlyred,red,1,1,1,0,22,"[0.25, 0.17500000000000002, 0.2, 0.17500000000000002, 0.225, 0.2, 0.25, 0.17500000000000002, 0.2, 0.17500000000000002, 0.2, 0.15000000000000002, 0.2, 0.17500000000000002, 0.2]",0.19666666666666668,,,,,,,,,,,,,,,,,042126sb,001,2026-04-21_14h14.00.801,priming,,2026.1.3,59.93088470071801,2026-04-21 14h14.01.131467 -0700,
,,,,,,,,,,,39,0.025,0.15000000000000002,,,,,227.47553100000368,,,,,,,227.45990229200106,228.45894641699851,0.85,0.15000000000000002,228.4624930419959,230.20901012499235,230.21044016699307,231.90972920900094,mostlygreen,green,0,1,0,1,23,"[0.17500000000000002, 0.2, 0.17500000000000002, 0.225, 0.2, 0.25, 0.17500000000000002, 0.2, 0.17500000000000002, 0.2, 0.15000000000000002, 0.2, 0.17500000000000002, 0.2, 0.15000000000000002]",0.19,,,,,,,,,,,,,,,,,042126sb,001,2026-04-21_14h14.00.801,priming,,2026.1.3,59.93088470071801,2026-04-21 14h14.01.131467 -0700,
,,,,,,,,,,,,,,,,,,,,,,space,76.22062004098552,None,,,,,,,,,,,,,,,,,,,,,,,,,,,,,,,,,,042126sb,001,2026-04-21_14h14.00.801,priming,,2026.1.3,59.93088470071801,2026-04-21 14h14.01.131467 -0700,
GR_Congruent_RedCue_RedProbe_Top,GreenGaborBoth.png,RedGaborBoth.png,GreenGaborBoth.png,RedGaborDisappearTop.png,Red.mp3,red,top,0,0,0,,,,0,0,0,40,308.2259079589858,,,,,,,,,,,,,,,,top,,,,,,,,308.20520229198155,311.3594935419969,311.35965270898305,316.6091909999959,316.61809741699835,317.8593472089851,317.8609382919967,320.19313041699934,320.1946619999944,323.36028854199685,mostlyred,FinalRedContrast,FinalGreenContrast,323.360636833997,334.44353412499186,2,042126sb,001,2026-04-21_14h14.00.801,priming,,2026.1.3,59.93088470071801,2026-04-21 14h14.01.131467 -0700,
GG_non_riv_catch_GreenCue_GreenProbe_Bottom,GreenGaborBoth.png,Blank.png,GreenGaborDisappearBottom.png,Blank.png,Green.mp3,green,bottom,1,1,0,,,,0,1,1,79,334.45922900000005,,,,,,,,,,,,,,,,bottom,,,,,,,,334.44598608399974,386.8127861249959,386.8129873339785,392.059666333982,392.0678930419963,393.30967249997775,393.31103066698415,394.0771249169775,394.07814808399417,396.9271372089861,allgreen,FinalRedContrast,FinalGreenContrast,396.92825754199293,399.47709904197836,3,042126sb,001,2026-04-21_14h14.00.801,priming,,2026.1.3,59.93088470071801,2026-04-21 14h14.01.131467 -0700,
GR_Congruent_GreenCue_GreenProbe_Top,GreenGaborBoth.png,RedGaborBoth.png,GreenGaborDisappearTop.png,RedGaborBoth.png,Green.mp3,green,top,2,2,0,,,,0,2,2,10,399.49278229198535,,,,,,,,,,,,,,,,top,,,,,,,,399.4771995419869,400.17660966698895,400.1767729589774,405.4263059999794,405.4343702920014,406.67631416697986,406.67849387499155,407.8265972499794,407.82821383400005,409.87753558397526,mostlygreen,FinalRedContrast,FinalGreenContrast,409.8779277089925,412.46064933398156,3,042126sb,001,2026-04-21_14h14.00.801,priming,,2026.1.3,59.93088470071801,2026-04-21 14h14.01.131467 -0700,
GR_Incongruent_GreenCue_RedProbe_Top,GreenGaborBoth.png,RedGaborBoth.png,GreenGaborBoth.png,RedGaborDisappearTop.png,Green.mp3,green,top,3,3,0,,,,0,3,3,54,412.47631491700304,,,,,,,,,,,,,,,,top,,,,,,,,412.46079708400066,420.8600557500031,420.8602197919972,426.10976812499575,426.11825654198765,427.35963141699904,427.3613802919863,430.31016070899204,430.3116989999835,432.3606388339831,mostlygreen,FinalRedContrast,FinalGreenContrast,432.3617813339806,436.2273743339756,3,042126sb,001,2026-04-21_14h14.00.801,priming,,2026.1.3,59.93088470071801,2026-04-21 14h14.01.131467 -0700,
GR_Congruent_GreenCue_GreenProbe_Bottom,GreenGaborBoth.png,RedGaborBoth.png,GreenGaborDisappearBottom.png,RedGaborBoth.png,Green.mp3,green,bottom,4,4,0,,,,0,4,4,59,436.24292591700214,,,,,,,,,,,,,,,,bottom,,,,,,,,436.2274889169785,437.22670724999625,437.22687145898817,442.4762978749932,442.48388070898363,443.72659058400313,443.7282529169752,446.6269884999783,446.6286201670009,448.77742604198284,mostlygreen,FinalRedContrast,FinalGreenContrast,448.77837124999496,450.8107330839848,3,042126sb,001,2026-04-21_14h14.00.801,priming,,2026.1.3,59.93088470071801,2026-04-21 14h14.01.131467 -0700,
GR_Incongruent_GreenCue_RedProbe_Bottom,GreenGaborBoth.png,RedGaborBoth.png,GreenGaborBoth.png,RedGaborDisappearBottom.png,Green.mp3,green,bottom,5,5,0,,,,0,5,5,55,450.8264487499837,,,,,,,,,,,,,,,,bottom,,,,,,,,450.81083599998965,451.56023937498685,451.56040116699296,456.8097830839979,456.8178198749956,458.05992270898423,458.0611991249898,460.7102973339788,460.7119786669791,462.66071520900005,mostlyred,FinalRedContrast,FinalGreenContrast,462.66196274998947,464.6106869170035,3,042126sb,001,2026-04-21_14h14.00.801,priming,,2026.1.3,59.93088470071801,2026-04-21 14h14.01.131467 -0700,
GG_non_riv_catch_GreenCue_GreenProbe_Top,GreenGaborBoth.png,Blank.png,GreenGaborDisappearTop.png,Blank.png,Green.mp3,green,top,6,6,0,,,,0,6,6,78,464.62648024997907,,,,,,,,,,,,,,,,top,,,,,,,,464.61078916699626,465.37682570898323,465.3769859589811,470.6265682919766,470.63355149998097,471.87660566699924,471.8783405419963,473.7603204170009,473.7617375419941,474.86074345899397,allgreen,FinalRedContrast,FinalGreenContrast,474.8619777499989,475.71067883400247,3,042126sb,001,2026-04-21_14h14.00.801,priming,,2026.1.3,59.93088470071801,2026-04-21 14h14.01.131467 -0700,
GR_Incongruent_RedCue_GreenProbe_Top,GreenGaborBoth.png,RedGaborBoth.png,GreenGaborDisappearTop.png,RedGaborBoth.png,Red.mp3,red,top,7,7,0,,,,0,7,7,68,475.72660666698357,,,,,,,,,,,,,,,,top,,,,,,,,475.7124057089968,476.7936320419831,476.79379470899585,482.0432628749986,482.04976458399324,483.29334375000326,483.29475749999983,487.12714695898467,487.12784129197826,488.49432887497824,mostlyred,FinalRedContrast,FinalGreenContrast,488.4946235840034,490.57756979198894,2,042126sb,001,2026-04-21_14h14.00.801,priming,,2026.1.3,59.93088470071801,2026-04-21 14h14.01.131467 -0700,
GR_Incongruent_RedCue_GreenProbe_Top,GreenGaborBoth.png,RedGaborBoth.png,GreenGaborDisappearTop.png,RedGaborBoth.png,Red.mp3,red,top,8,8,0,,,,0,8,8,12,490.5932190839958,,,,,,,,,,,,,,,,top,,,,,,,,490.5776894589944,491.76029145898065,491.76045979198534,497.0100080839766,497.01657337500365,498.26005187499686,498.26163737499155,500.2771071669995,500.27872312499676,503.2275151249778,mostlygreen,FinalRedContrast,FinalGreenContrast,503.2285291669832,506.62756699998863,2,042126sb,001,2026-04-21_14h14.00.801,priming,,2026.1.3,59.93088470071801,2026-04-21 14h14.01.131467 -0700,
GR_Congruent_GreenCue_GreenProbe_Top,GreenGaborBoth.png,RedGaborBoth.png,GreenGaborDisappearTop.png,RedGaborBoth.png,Green.mp3,green,top,9,9,0,,,,0,9,9,58,506.64328654197743,,,,,,,,,,,,,,,,top,,,,,,,,506.62953195898444,511.5271538749803,511.52731629199116,516.7768785419757,516.7834656249906,518.0267391669913,518.0285767499881,521.1105665839859,521.1119851669937,525.4942465419881,mostlyred,FinalRedContrast,FinalGreenContrast,525.4955258749833,528.9610095839889,2,042126sb,001,2026-04-21_14h14.00.801,priming,,2026.1.3,59.93088470071801,2026-04-21 14h14.01.131467 -0700,
GR_Incongruent_RedCue_GreenProbe_Top,GreenGaborBoth.png,RedGaborBoth.png,GreenGaborDisappearTop.png,RedGaborBoth.png,Red.mp3,red,top,10,10,0,,,,0,10,10,20,528.9766167089983,,,,,,,,,,,,,,,,top,,,,,,,,528.9628291249974,529.6771224999975,529.6772905839898,534.9268125419912,534.9346060839889,536.1767905419983,536.1781712090014,538.9605264589773,538.961979499989,540.4609665839816,mostlyred,FinalRedContrast,FinalGreenContrast,540.4621704999881,541.9277617499756,2,042126sb,001,2026-04-21_14h14.00.801,priming,,2026.1.3,59.93088470071801,2026-04-21 14h14.01.131467 -0700,
GR_Congruent_RedCue_RedProbe_Top,GreenGaborBoth.png,RedGaborBoth.png,GreenGaborBoth.png,RedGaborDisappearTop.png,Red.mp3,red,top,11,11,0,,,,0,11,11,64,541.9434411249822,,,,,,,,,,,,,,,,top,,,,,,,,541.9278629589826,542.7105863750039,542.7107514169766,547.960237249994,547.9685574169853,549.2102470419777,549.2117198339838,553.6939597500023,553.6953977090016,556.1611534999975,mostlyred,FinalRedContrast,FinalGreenContrast,556.1616054589977,557.6611391670012,2,042126sb,001,2026-04-21_14h14.00.801,priming,,2026.1.3,59.93088470071801,2026-04-21 14h14.01.131467 -0700,
GG_non_riv_catch_RedCue_GreenProbe_Top,GreenGaborBoth.png,Blank.png,GreenGaborDisappearTop.png,Blank.png,Red.mp3,red,top,12,12,0,,,,0,12,12,76,557.6768485420034,,,,,,,,,,,,,,,,bottom,,,,,,,,557.6612631249882,558.5605766249937,558.5607389999786,563.8102521249966,563.8170604589977,565.0602313339768,565.0617657919938,565.6274824999855,565.6284952089773,569.7611289999913,allgreen,FinalRedContrast,FinalGreenContrast,569.7622617089946,578.694614374981,3,042126sb,001,2026-04-21_14h14.00.801,priming,,2026.1.3,59.93088470071801,2026-04-21 14h14.01.131467 -0700,
GR_Incongruent_RedCue_GreenProbe_Bottom,GreenGaborBoth.png,RedGaborBoth.png,GreenGaborDisappearBottom.png,RedGaborBoth.png,Red.mp3,red,bottom,13,13,0,,,,0,13,13,69,578.7103698749852,,,,,,,,,,,,,,,,bottom,,,,,,,,578.6947162919969,579.3606432089873,579.3608082089922,584.6103399589774,584.6184065839916,585.8604269999778,585.861937833979,588.1274799999956,588.1291242919979,589.4445421249839,mostlygreen,FinalRedContrast,FinalGreenContrast,589.4458277499944,591.3444924999785,3,042126sb,001,2026-04-21_14h14.00.801,priming,,2026.1.3,59.93088470071801,2026-04-21 14h14.01.131467 -0700,
GR_Incongruent_GreenCue_RedProbe_Bottom,GreenGaborBoth.png,RedGaborBoth.png,GreenGaborBoth.png,RedGaborDisappearBottom.png,Green.mp3,green,bottom,14,14,0,,,,0,14,14,39,591.3602897499804,,,,,,,,,,,,,,,,bottom,,,,,,,,591.3464829589939,592.2273827089812,592.2275469589804,597.4770892499946,597.4848363749916,598.7270297919749,598.7286499589973,601.0940729589784,601.0958259170002,603.7444784999825,mostlyred,FinalRedContrast,FinalGreenContrast,603.7457294999913,606.3612245419936,3,042126sb,001,2026-04-21_14h14.00.801,priming,,2026.1.3,59.93088470071801,2026-04-21 14h14.01.131467 -0700,
GR_Incongruent_RedCue_GreenProbe_Top,GreenGaborBoth.png,RedGaborBoth.png,GreenGaborDisappearTop.png,RedGaborBoth.png,Red.mp3,red,top,15,15,0,,,,0,15,15,36,606.3769072089926,,,,,,,,,,,,,,,,top,,,,,,,,606.3629281249887,607.7774822089996,607.7776502089982,613.0271756669972,613.0342799999926,614.277211958979,614.2788181249925,615.2609760839841,615.2621554590005,617.3446718339983,mostlyred,FinalRedContrast,FinalGreenContrast,617.3456882089959,619.261371458997,3,042126sb,001,2026-04-21_14h14.00.801,priming,,2026.1.3,59.93088470071801,2026-04-21 14h14.01.131467 -0700,
GR_Incongruent_GreenCue_RedProbe_Bottom,GreenGaborBoth.png,RedGaborBoth.png,GreenGaborBoth.png,RedGaborDisappearBottom.png,Green.mp3,green,bottom,16,16,0,,,,0,16,16,47,619.2771288339864,,,,,,,,,,,,,,,,bottom,,,,,,,,619.2633308749937,619.9608118750039,619.9609748749936,625.2104806669813,625.2169754999923,626.4604201249895,626.4623907499772,628.3275401249994,628.3291637499933,630.5613589589775,mostlyred,FinalRedContrast,FinalGreenContrast,630.5621421669784,632.1446504589985,2,042126sb,001,2026-04-21_14h14.00.801,priming,,2026.1.3,59.93088470071801,2026-04-21 14h14.01.131467 -0700,
GR_Congruent_GreenCue_GreenProbe_Top,GreenGaborBoth.png,RedGaborBoth.png,GreenGaborDisappearTop.png,RedGaborBoth.png,Green.mp3,green,top,17,17,0,,,,0,17,17,50,632.1603721249849,,,,,,,,,,,,,,,,top,,,,,,,,632.144750833977,632.7773916249862,632.7775559999864,638.0271994590003,638.0337221669906,639.2772107089986,639.2788072089897,640.9943744999764,640.996143833996,643.2113898340031,mostlygreen,FinalRedContrast,FinalGreenContrast,643.2125179169816,644.6448121669819,3,042126sb,001,2026-04-21_14h14.00.801,priming,,2026.1.3,59.93088470071801,2026-04-21 14h14.01.131467 -0700,
GR_Incongruent_RedCue_GreenProbe_Bottom,GreenGaborBoth.png,RedGaborBoth.png,GreenGaborDisappearBottom.png,RedGaborBoth.png,Red.mp3,red,bottom,18,18,0,,,,0,18,18,61,644.6605770419992,,,,,,,,,,,,,,,,bottom,,,,,,,,644.6465376669948,645.5442365839845,645.5443991670036,650.7939614169882,650.8004750419932,652.0440242920013,652.0452737089945,654.4443968339765,654.445900916995,655.694776208984,evensplit,FinalRedContrast,FinalGreenContrast,655.6956453750026,658.3282056250027,3,042126sb,001,2026-04-21_14h14.00.801,priming,,2026.1.3,59.93088470071801,2026-04-21 14h14.01.131467 -0700,
GR_Congruent_GreenCue_GreenProbe_Bottom,GreenGaborBoth.png,RedGaborBoth.png,GreenGaborDisappearBottom.png,RedGaborBoth.png,Green.mp3,green,bottom,19,19,0,,,,0,19,19,51,658.3439033750037,,,,,,,,,,,,,,,,bottom,,,,,,,,658.3301105839782,659.3443062919832,659.3444675839855,664.5939857919875,664.6005859999859,665.8439228339994,665.8456250839808,667.1944162919826,667.1959537919902,668.6948827919841,mostlyred,FinalRedContrast,FinalGreenContrast,668.6955673339835,670.761471167003,2,042126sb,001,2026-04-21_14h14.00.801,priming,,2026.1.3,59.93088470071801,2026-04-21 14h14.01.131467 -0700,
GR_Incongruent_RedCue_GreenProbe_Bottom,GreenGaborBoth.png,RedGaborBoth.png,GreenGaborDisappearBottom.png,RedGaborBoth.png,Red.mp3,red,bottom,20,20,0,,,,0,20,20,37,670.7771622499858,,,,,,,,,,,,,,,,bottom,,,,,,,,670.7633152089838,671.4442131669784,671.4443781669834,676.693976333976,676.7005615419766,677.9441381669894,677.9457502919831,679.5778422089934,679.5793452090002,681.7616442919825,mostlyred,FinalRedContrast,FinalGreenContrast,681.7627182499855,686.3949893749959,3,042126sb,001,2026-04-21_14h14.00.801,priming,,2026.1.3,59.93088470071801,2026-04-21 14h14.01.131467 -0700,
GR_Congruent_GreenCue_GreenProbe_Bottom,GreenGaborBoth.png,RedGaborBoth.png,GreenGaborDisappearBottom.png,RedGaborBoth.png,Green.mp3,green,bottom,21,21,0,,,,0,21,21,27,686.4107295419963,,,,,,,,,,,,,,,,bottom,,,,,,,,686.3970977089775,687.9277642499947,687.9279244999925,693.1774440839945,693.1840021249955,694.4275087919959,694.4292913340032,695.7278865419794,695.7287881249795,697.2782950839901,mostlyred,FinalRedContrast,FinalGreenContrast,697.2787125000032,698.9949021249777,3,042126sb,001,2026-04-21_14h14.00.801,priming,,2026.1.3,59.93088470071801,2026-04-21 14h14.01.131467 -0700,
GR_Congruent_GreenCue_GreenProbe_Top,GreenGaborBoth.png,RedGaborBoth.png,GreenGaborDisappearTop.png,RedGaborBoth.png,Green.mp3,green,top,22,22,0,,,,0,22,22,42,699.0106615419791,,,,,,,,,,,,,,,,top,,,,,,,,698.9950055419758,699.6614282499941,699.6616135840013,704.9107554999937,704.9183249589987,706.160778208985,706.1622071249876,708.5613281249825,708.5629066249821,709.5284870000032,evensplit,FinalRedContrast,FinalGreenContrast,709.5296468749875,710.978400958993,3,042126sb,001,2026-04-21_14h14.00.801,priming,,2026.1.3,59.93088470071801,2026-04-21 14h14.01.131467 -0700,
GR_Congruent_RedCue_RedProbe_Bottom,GreenGaborBoth.png,RedGaborBoth.png,GreenGaborBoth.png,RedGaborDisappearBottom.png,Red.mp3,red,bottom,23,23,0,,,,0,23,23,65,710.9941807499854,,,,,,,,,,,,,,,,bottom,,,,,,,,710.9801324589935,711.6449140839977,711.6450912499859,716.8941474169842,716.9012046249991,718.1442202919861,718.1458372919878,719.4113110000035,719.4129675419827,720.6450174589991,mostlyred,FinalRedContrast,FinalGreenContrast,720.6462108749838,722.0784714169858,2,042126sb,001,2026-04-21_14h14.00.801,priming,,2026.1.3,59.93088470071801,2026-04-21 14h14.01.131467 -0700,
GR_Incongruent_RedCue_GreenProbe_Top,GreenGaborBoth.png,RedGaborBoth.png,GreenGaborDisappearTop.png,RedGaborBoth.png,Red.mp3,red,top,24,24,0,,,,0,24,24,28,722.0941606249835,,,,,,,,,,,,,,,,top,,,,,,,,722.0785796669952,722.794509542,722.794671666983,728.0442715419922,728.050739208993,729.2942500839999,729.2956175419968,731.9779840419942,731.9794659589825,735.7117728339799,mostlyred,FinalRedContrast,FinalGreenContrast,735.7129244589887,737.4284186250006,2,042126sb,001,2026-04-21_14h14.00.801,priming,,2026.1.3,59.93088470071801,2026-04-21 14h14.01.131467 -0700,
RR_non_riv_catch_RedCue_RedProbe_Bottom,Blank.png,RedGaborBoth.png,Blank.png,RedGaborDisappearBottom.png,Red.mp3,red,bottom,25,25,0,,,,0,25,25,73,737.4440630000026,,,,,,,,,,,,,,,,bottom,,,,,,,,737.428526083997,738.4445778749941,738.4447422499943,743.6943702089775,743.700636249996,744.9442560419848,744.9460367499851,748.0451724589802,748.0457971249998,750.0620019169874,allred,FinalRedContrast,FinalGreenContrast,750.0629559590016,753.3118774169998,3,042126sb,001,2026-04-21_14h14.00.801,priming,,2026.1.3,59.93088470071801,2026-04-21 14h14.01.131467 -0700,
GR_Incongruent_GreenCue_RedProbe_Top,GreenGaborBoth.png,RedGaborBoth.png,GreenGaborBoth.png,RedGaborDisappearTop.png,Green.mp3,green,top,26,26,0,,,,0,26,26,30,753.3276160419919,,,,,,,,,,,,,,,,top,,,,,,,,753.3138199999812,754.1613057089853,754.1614714169991,759.4109614169865,759.418712166982,760.661045166984,760.6625013339799,763.8781096249877,763.8791709590005,764.9118948749965,mostlyred,FinalRedContrast,FinalGreenContrast,764.9129573339887,766.4620307919977,3,042126sb,001,2026-04-21_14h14.00.801,priming,,2026.1.3,59.93088470071801,2026-04-21 14h14.01.131467 -0700,
GR_Congruent_GreenCue_GreenProbe_Top,GreenGaborBoth.png,RedGaborBoth.png,GreenGaborDisappearTop.png,RedGaborBoth.png,Green.mp3,green,top,27,27,0,,,,0,27,27,34,766.4775748749962,,,,,,,,,,,,,,,,top,,,,,,,,766.4621313749813,767.1946360000002,767.19480329199,772.4443599169899,772.4510076669976,773.6943939169869,773.6957076669787,775.8283065839787,775.8296912919905,778.1953579999972,evensplit,FinalRedContrast,FinalGreenContrast,778.196361499984,780.4952889169799,3,042126sb,001,2026-04-21_14h14.00.801,priming,,2026.1.3,59.93088470071801,2026-04-21 14h14.01.131467 -0700,
GR_Congruent_RedCue_RedProbe_Bottom,GreenGaborBoth.png,RedGaborBoth.png,GreenGaborBoth.png,RedGaborDisappearBottom.png,Red.mp3,red,bottom,28,28,0,,,,0,28,28,9,780.5110652500007,,,,,,,,,,,,,,,,bottom,,,,,,,,780.4971382499789,781.5447415839881,781.5449079590035,786.7944156249869,786.8020543750026,788.0444976250001,788.046142584004,788.9949342919863,788.9964109589928,790.8954158339766,mostlyred,FinalRedContrast,FinalGreenContrast,790.8960024169937,793.0287411669851,3,042126sb,001,2026-04-21_14h14.00.801,priming,,2026.1.3,59.93088470071801,2026-04-21 14h14.01.131467 -0700,
GR_Congruent_RedCue_RedProbe_Top,GreenGaborBoth.png,RedGaborBoth.png,GreenGaborBoth.png,RedGaborDisappearTop.png,Red.mp3,red,top,29,29,0,,,,0,29,29,16,793.0444244169921,,,,,,,,,,,,,,,,top,,,,,,,,793.0288490419916,793.5448161669774,793.5449771249841,798.794446416985,798.8020060839772,800.04450012499,800.0458419169881,802.294907124975,802.296644874994,806.9953477089875,mostlyred,FinalRedContrast,FinalGreenContrast,806.9964798750007,808.3786608749942,2,042126sb,001,2026-04-21_14h14.00.801,priming,,2026.1.3,59.93088470071801,2026-04-21 14h14.01.131467 -0700,
GR_Incongruent_RedCue_GreenProbe_Top,GreenGaborBoth.png,RedGaborBoth.png,GreenGaborDisappearTop.png,RedGaborBoth.png,Red.mp3,red,top,30,30,0,,,,0,30,30,60,808.394353583979,,,,,,,,,,,,,,,,top,,,,,,,,808.3787629589788,808.8285286249884,808.8286987500032,814.0779344170005,814.084371416975,815.3279215419898,815.329658208997,816.6118857919937,816.6132721669856,817.5454007499793,evensplit,FinalRedContrast,FinalGreenContrast,817.5465769589937,819.1787684169831,2,042126sb,001,2026-04-21_14h14.00.801,priming,,2026.1.3,59.93088470071801,2026-04-21 14h14.01.131467 -0700,
GR_Incongruent_GreenCue_RedProbe_Bottom,GreenGaborBoth.png,RedGaborBoth.png,GreenGaborBoth.png,RedGaborDisappearBottom.png,Green.mp3,green,bottom,31,31,0,,,,0,31,31,23,819.1944492499752,,,,,,,,,,,,,,,,bottom,,,,,,,,819.180786833982,819.8782576669764,819.878420833993,825.1279153339856,825.1348575839947,826.3779367919778,826.3794829169929,827.7785296249785,827.7801596249919,828.4621377500007,mostlyred,FinalRedContrast,FinalGreenContrast,828.4632263339881,830.8620718339807,3,042126sb,001,2026-04-21_14h14.00.801,priming,,2026.1.3,59.93088470071801,2026-04-21 14h14.01.131467 -0700,
GR_Congruent_RedCue_RedProbe_Bottom,GreenGaborBoth.png,RedGaborBoth.png,GreenGaborBoth.png,RedGaborDisappearBottom.png,Red.mp3,red,bottom,32,32,0,,,,0,32,32,41,830.8778798339772,,,,,,,,,,,,,,,,bottom,,,,,,,,830.8638051250018,832.0449140839919,832.0450758749794,837.294621249981,837.3011469169869,838.5445278749976,838.5465962089947,841.0117197919753,841.0131172089896,842.1953951669857,mostlyred,FinalRedContrast,FinalGreenContrast,842.1966147499916,843.1953770419932,3,042126sb,001,2026-04-21_14h14.00.801,priming,,2026.1.3,59.93088470071801,2026-04-21 14h14.01.131467 -0700,
GR_Congruent_RedCue_RedProbe_Top,GreenGaborBoth.png,RedGaborBoth.png,GreenGaborBoth.png,RedGaborDisappearTop.png,Red.mp3,red,top,33,33,0,,,,0,33,33,32,843.2111536669836,,,,,,,,,,,,,,,,top,,,,,,,,843.1954787499853,843.728265083977,843.7284289590025,848.9781247919891,848.9856242919923,850.2281393339799,850.2293786249938,851.0952068339975,851.096140833979,852.0955831249885,mostlyred,FinalRedContrast,FinalGreenContrast,852.0967279589968,853.2293536669749,2,042126sb,001,2026-04-21_14h14.00.801,priming,,2026.1.3,59.93088470071801,2026-04-21 14h14.01.131467 -0700,
GR_Congruent_RedCue_RedProbe_Top,GreenGaborBoth.png,RedGaborBoth.png,GreenGaborBoth.png,RedGaborDisappearTop.png,Red.mp3,red,top,34,34,0,,,,0,34,34,8,853.2446180839906,,,,,,,,,,,,,,,,top,,,,,,,,853.2294594589912,853.8784154169844,853.8785751249816,859.1280614999996,859.1347052499768,860.3781014589767,860.3797103340039,861.9451308339776,861.9467266669963,863.3288799999864,mostlyred,FinalRedContrast,FinalGreenContrast,863.3299422089767,866.4622312089778,3,042126sb,001,2026-04-21_14h14.00.801,priming,,2026.1.3,59.93088470071801,2026-04-21 14h14.01.131467 -0700,
GR_Incongruent_RedCue_GreenProbe_Bottom,GreenGaborBoth.png,RedGaborBoth.png,GreenGaborDisappearBottom.png,RedGaborBoth.png,Red.mp3,red,bottom,35,35,0,,,,0,35,35,29,866.4780230000033,,,,,,,,,,,,,,,,bottom,,,,,,,,866.4623334170028,866.9783275419904,866.978488541994,872.2280990419968,872.2357714169775,873.4781116669765,873.4799172089843,875.5617975420028,875.5635148339788,876.6289281669888,mostlyred,FinalRedContrast,FinalGreenContrast,876.6299010840012,878.8790696249926,2,042126sb,001,2026-04-21_14h14.00.801,priming,,2026.1.3,59.93088470071801,2026-04-21 14h14.01.131467 -0700,
GR_Congruent_GreenCue_GreenProbe_Bottom,GreenGaborBoth.png,RedGaborBoth.png,GreenGaborDisappearBottom.png,RedGaborBoth.png,Green.mp3,green,bottom,36,36,0,,,,0,36,36,67,878.8947338339931,,,,,,,,,,,,,,,,bottom,,,,,,,,878.880972916988,879.5951907089911,879.59535649998,884.8448536669894,884.8513863339904,886.0947760419804,886.0967088339967,887.4119959999807,887.4130029999942,888.6290187919803,evensplit,FinalRedContrast,FinalGreenContrast,888.6300621249829,891.5790862919821,4,042126sb,001,2026-04-21_14h14.00.801,priming,,2026.1.3,59.93088470071801,2026-04-21 14h14.01.131467 -0700,
GR_Incongruent_GreenCue_RedProbe_Top,GreenGaborBoth.png,RedGaborBoth.png,GreenGaborBoth.png,RedGaborDisappearTop.png,Green.mp3,green,top,37,37,0,,,,0,37,37,14,891.5948544169951,,,,,,,,,,,,,,,,top,,,,,,,,891.5791865839856,894.395109709003,894.3952731250029,899.6450125419942,899.65152449999,900.8948647499783,900.8964315420017,903.4619012920011,903.4628474169876,905.4290738339769,allgreen,FinalRedContrast,FinalGreenContrast,905.4301429999759,909.0124594169902,3,042126sb,001,2026-04-21_14h14.00.801,priming,,2026.1.3,59.93088470071801,2026-04-21 14h14.01.131467 -0700,
GR_Congruent_GreenCue_GreenProbe_Top,GreenGaborBoth.png,RedGaborBoth.png,GreenGaborDisappearTop.png,RedGaborBoth.png,Green.mp3,green,top,38,38,0,,,,0,38,38,2,909.0281487919856,,,,,,,,,,,,,,,,top,,,,,,,,909.0125712089939,909.9952034169983,909.9953610419761,915.244944459002,915.2525621669774,916.4950115839893,916.4966707499989,918.112108166999,918.1132037919888,919.2625432089844,mostlygreen,FinalRedContrast,FinalGreenContrast,919.2636029169953,920.9624604169803,2,042126sb,001,2026-04-21_14h14.00.801,priming,,2026.1.3,59.93088470071801,2026-04-21 14h14.01.131467 -0700,
GR_Incongruent_GreenCue_RedProbe_Bottom,GreenGaborBoth.png,RedGaborBoth.png,GreenGaborBoth.png,RedGaborDisappearBottom.png,Green.mp3,green,bottom,39,39,0,,,,0,39,39,15,920.9783043749921,,,,,,,,,,,,,,,,bottom,,,,,,,,920.9625623750035,921.7453599589935,921.7455239999981,926.9949967089924,927.0015098750009,928.2451377089892,928.2466800419788,929.562123458978,929.5637868339836,930.9291697919834,mostlyred,FinalRedContrast,FinalGreenContrast,930.9303882919776,932.5458484589763,3,042126sb,001,2026-04-21_14h14.00.801,priming,,2026.1.3,59.93088470071801,2026-04-21 14h14.01.131467 -0700,
GR_Congruent_GreenCue_GreenProbe_Bottom,GreenGaborBoth.png,RedGaborBoth.png,GreenGaborDisappearBottom.png,RedGaborBoth.png,Green.mp3,green,bottom,40,40,0,,,,0,40,40,3,932.5616187089763,,,,,,,,,,,,,,,,bottom,,,,,,,,932.5459503339953,933.2787002089899,933.2788611669966,938.5283557499934,938.5348081249977,939.7784059169935,939.7796842499811,942.1787508339912,942.1800132089993,943.695765041979,mostlyred,FinalRedContrast,FinalGreenContrast,943.6970790839987,945.41257687498,3,042126sb,001,2026-04-21_14h14.00.801,priming,,2026.1.3,59.93088470071801,2026-04-21 14h14.01.131467 -0700,
GR_Incongruent_RedCue_GreenProbe_Bottom,GreenGaborBoth.png,RedGaborBoth.png,GreenGaborDisappearBottom.png,RedGaborBoth.png,Red.mp3,red,bottom,41,41,0,,,,0,41,41,21,945.4282449589809,,,,,,,,,,,,,,,,bottom,,,,,,,,945.4143091249862,946.2786512500024,946.278811917,951.5284321249928,951.535085999989,952.7784708749969,952.7797675420006,953.5288493339904,953.5298888339894,955.9958608339948,mostlyred,FinalRedContrast,FinalGreenContrast,955.9972189589753,956.6626601250027,2,042126sb,001,2026-04-21_14h14.00.801,priming,,2026.1.3,59.93088470071801,2026-04-21 14h14.01.131467 -0700,
GR_Incongruent_GreenCue_RedProbe_Top,GreenGaborBoth.png,RedGaborBoth.png,GreenGaborBoth.png,RedGaborDisappearTop.png,Green.mp3,green,top,42,42,0,,,,0,42,42,46,956.67834420898,,,,,,,,,,,,,,,,top,,,,,,,,956.6647279169993,957.3287579999887,957.3289213749813,962.5785254169896,962.585064666986,963.8285228339955,963.8298412500008,965.87890625,965.8797676249815,967.0130713339895,mostlyred,FinalRedContrast,FinalGreenContrast,967.0133475000039,968.7127045840025,3,042126sb,001,2026-04-21_14h14.00.801,priming,,2026.1.3,59.93088470071801,2026-04-21 14h14.01.131467 -0700,
GR_Incongruent_RedCue_GreenProbe_Top,GreenGaborBoth.png,RedGaborBoth.png,GreenGaborDisappearTop.png,RedGaborBoth.png,Red.mp3,red,top,43,43,0,,,,0,43,43,44,968.7282882499858,,,,,,,,,,,,,,,,top,,,,,,,,968.714435834001,969.4120131249947,969.4121745839948,974.6618799999997,974.6695267089817,975.9120289589919,975.913524374977,976.6954634589783,976.6971566249849,977.8125977089803,mostlyred,FinalRedContrast,FinalGreenContrast,977.8138099589851,978.879346583999,2,042126sb,001,2026-04-21_14h14.00.801,priming,,2026.1.3,59.93088470071801,2026-04-21 14h14.01.131467 -0700,
GR_Congruent_RedCue_RedProbe_Top,GreenGaborBoth.png,RedGaborBoth.png,GreenGaborBoth.png,RedGaborDisappearTop.png,Red.mp3,red,top,44,44,0,,,,0,44,44,24,978.8951032089826,,,,,,,,,,,,,,,,top,,,,,,,,978.8794544999837,979.3621452089865,979.3623050419847,984.6119010839902,984.618556417001,985.8619634589995,985.8634408749931,987.1623312089941,987.1638785419927,990.1960547920025,mostlyred,FinalRedContrast,FinalGreenContrast,990.1968738339783,992.1961719169922,2,042126sb,001,2026-04-21_14h14.00.801,priming,,2026.1.3,59.93088470071801,2026-04-21 14h14.01.131467 -0700,
GR_Congruent_GreenCue_GreenProbe_Bottom,GreenGaborBoth.png,RedGaborBoth.png,GreenGaborDisappearBottom.png,RedGaborBoth.png,Green.mp3,green,bottom,45,45,0,,,,0,45,45,11,992.2118915419851,,,,,,,,,,,,,,,,bottom,,,,,,,,992.1982947919751,994.9789190419833,994.9790847499971,1000.228549624997,1000.2351349999954,1001.478536458977,1001.4803388750006,1003.0123742499854,1003.0139414999867,1004.4295607919921,mostlygreen,FinalRedContrast,FinalGreenContrast,1004.4305154169851,1005.5794630839955,2,042126sb,001,2026-04-21_14h14.00.801,priming,,2026.1.3,59.93088470071801,2026-04-21 14h14.01.131467 -0700,
GR_Congruent_RedCue_RedProbe_Bottom,GreenGaborBoth.png,RedGaborBoth.png,GreenGaborBoth.png,RedGaborDisappearBottom.png,Red.mp3,red,bottom,46,46,0,,,,0,46,46,57,1005.5952392499894,,,,,,,,,,,,,,,,bottom,,,,,,,,1005.5811906250019,1006.0622222090024,1006.0623834169819,1011.312063874997,1011.3186557089793,1012.5620163749845,1012.5639205839834,1014.095721708989,1014.0972741250007,1015.079842334002,mostlyred,FinalRedContrast,FinalGreenContrast,1015.0801778750028,1016.7295829999784,2,042126sb,001,2026-04-21_14h14.00.801,priming,,2026.1.3,59.93088470071801,2026-04-21 14h14.01.131467 -0700,
GR_Incongruent_GreenCue_RedProbe_Top,GreenGaborBoth.png,RedGaborBoth.png,GreenGaborBoth.png,RedGaborDisappearTop.png,Green.mp3,green,top,47,47,0,,,,0,47,47,38,1016.7452367089863,,,,,,,,,,,,,,,,top,,,,,,,,1016.7316195839958,1017.1622953339829,1017.1624563749938,1022.4120352919854,1022.419608999975,1023.6620844169811,1023.663802458992,1024.7459412919998,1024.7474855420005,1026.3295781249763,mostlyred,FinalRedContrast,FinalGreenContrast,1026.3307071249874,1028.4962553749792,3,042126sb,001,2026-04-21_14h14.00.801,priming,,2026.1.3,59.93088470071801,2026-04-21 14h14.01.131467 -0700,
GR_Incongruent_GreenCue_RedProbe_Top,GreenGaborBoth.png,RedGaborBoth.png,GreenGaborBoth.png,RedGaborDisappearTop.png,Green.mp3,green,top,48,48,0,,,,0,48,48,62,1028.5119517919957,,,,,,,,,,,,,,,,top,,,,,,,,1028.496354916977,1029.2457233750029,1029.2459045839787,1034.495407999988,1034.5018823749851,1035.7454614589806,1035.746670291992,1036.612498083996,1036.6140597089834,1038.36295374998,mostlyred,FinalRedContrast,FinalGreenContrast,1038.3636602920014,1040.279652458994,3,042126sb,001,2026-04-21_14h14.00.801,priming,,2026.1.3,59.93088470071801,2026-04-21 14h14.01.131467 -0700,
GR_Congruent_RedCue_RedProbe_Bottom,GreenGaborBoth.png,RedGaborBoth.png,GreenGaborBoth.png,RedGaborDisappearBottom.png,Red.mp3,red,bottom,49,49,0,,,,0,49,49,49,1040.2952397089975,,,,,,,,,,,,,,,,bottom,,,,,,,,1040.2813330419885,1041.02905391698,1041.0292172920017,1046.278647500003,1046.2850265419984,1047.5287744999805,1047.5300869169878,1048.7625358749938,1048.763931374997,1049.6795958750008,mostlyred,FinalRedContrast,FinalGreenContrast,1049.6807669589762,1050.5462753339962,1,042126sb,001,2026-04-21_14h14.00.801,priming,,2026.1.3,59.93088470071801,2026-04-21 14h14.01.131467 -0700,
GR_Congruent_RedCue_RedProbe_Bottom,GreenGaborBoth.png,RedGaborBoth.png,GreenGaborBoth.png,RedGaborDisappearBottom.png,Red.mp3,red,bottom,50,50,0,,,,0,50,50,25,1050.5620336669963,,,,,,,,,,,,,,,,bottom,,,,,,,,1050.546377458988,1051.2123220420035,1051.2124869169784,1056.4622084169823,1056.4686352499994,1057.7122152499796,1057.713978291984,1060.5459657500032,1060.5475339169789,1061.9797088339983,mostlyred,FinalRedContrast,FinalGreenContrast,1061.9807990419795,1063.2297214999853,1,042126sb,001,2026-04-21_14h14.00.801,priming,,2026.1.3,59.93088470071801,2026-04-21 14h14.01.131467 -0700,
GR_Congruent_GreenCue_GreenProbe_Bottom,GreenGaborBoth.png,RedGaborBoth.png,GreenGaborDisappearBottom.png,RedGaborBoth.png,Green.mp3,green,bottom,51,51,0,,,,0,51,51,43,1063.2453526250029,,,,,,,,,,,,,,,,bottom,,,,,,,,1063.2317378750013,1064.9791755839833,1064.9793422499788,1070.2288747089915,1070.2365080000018,1071.478871542,1071.4805345420027,1073.545849999995,1073.5475325000007,1075.0297889589856,mostlygreen,FinalRedContrast,FinalGreenContrast,1075.0304822089965,1077.4297605839965,2,042126sb,001,2026-04-21_14h14.00.801,priming,,2026.1.3,59.93088470071801,2026-04-21 14h14.01.131467 -0700,
RR_non_riv_catch_GreenCue_RedProbe_Bottom,Blank.png,RedGaborBoth.png,Blank.png,RedGaborDisappearBottom.png,Green.mp3,green,bottom,52,52,0,,,,0,52,52,75,1077.4454493339872,,,,,,,,,,,,,,,,bottom,,,,,,,,1077.4298628749966,1078.3624794589996,1078.36264162499,1083.6121982089826,1083.6186279999965,1084.8621791669866,1084.864254666987,1085.9959499169781,1085.997476833989,1087.9298227499821,allred,FinalRedContrast,FinalGreenContrast,1087.9305585419934,1091.0298383749905,3,042126sb,001,2026-04-21_14h14.00.801,priming,,2026.1.3,59.93088470071801,2026-04-21 14h14.01.131467 -0700,
GR_Incongruent_GreenCue_RedProbe_Top,GreenGaborBoth.png,RedGaborBoth.png,GreenGaborBoth.png,RedGaborDisappearTop.png,Green.mp3,green,top,53,53,0,,,,0,53,53,6,1091.045561499981,,,,,,,,,,,,,,,,top,,,,,,,,1091.029965083988,1091.8459176670003,1091.8460799169843,1097.0956741669797,1097.1021087089903,1098.345572374994,1098.3475149169972,1100.4793734589766,1100.4804809589987,1101.6464216669847,mostlyred,FinalRedContrast,FinalGreenContrast,1101.6477008340007,1102.8631799169816,3,042126sb,001,2026-04-21_14h14.00.801,priming,,2026.1.3,59.93088470071801,2026-04-21 14h14.01.131467 -0700,
RR_non_riv_catch_GreenCue_RedProbe_Top,Blank.png,RedGaborBoth.png,Blank.png,RedGaborDisappearTop.png,Green.mp3,green,top,54,54,0,,,,0,54,54,74,1102.878885833983,,,,,,,,,,,,,,,,top,,,,,,,,1102.8632801669883,1103.4293304999883,1103.429495458986,1108.6790891669807,1108.6845256669912,1109.929018416995,1109.9305332919757,1111.762919708999,1111.764856624999,1112.7299737499852,allred,FinalRedContrast,FinalGreenContrast,1112.7304987499956,1114.1632911249762,3,042126sb,001,2026-04-21_14h14.00.801,priming,,2026.1.3,59.93088470071801,2026-04-21 14h14.01.131467 -0700,
GR_Congruent_RedCue_RedProbe_Bottom,GreenGaborBoth.png,RedGaborBoth.png,GreenGaborBoth.png,RedGaborDisappearBottom.png,Red.mp3,red,bottom,55,55,0,,,,0,55,55,1,1114.178918583988,,,,,,,,,,,,,,,,bottom,,,,,,,,1114.1649958749767,1114.7626073749852,1114.7627702089958,1120.012290499988,1120.0188939590007,1121.262472292001,1121.2643562500016,1124.1460976249946,1124.1477785419847,1125.1633294589992,mostlyred,FinalRedContrast,FinalGreenContrast,1125.1643587499857,1126.4799954999762,3,042126sb,001,2026-04-21_14h14.00.801,priming,,2026.1.3,59.93088470071801,2026-04-21 14h14.01.131467 -0700,
GR_Congruent_GreenCue_GreenProbe_Top,GreenGaborBoth.png,RedGaborBoth.png,GreenGaborDisappearTop.png,RedGaborBoth.png,Green.mp3,green,top,56,56,0,,,,0,56,56,18,1126.495737249992,,,,,,,,,,,,,,,,top,,,,,,,,1126.4819277499919,1127.179495999997,1127.1796641249966,1132.429076749977,1132.4367089169973,1133.6792213750014,1133.6804635419976,1135.8295165839954,1135.8309168339765,1137.229998041992,evensplit,FinalRedContrast,FinalGreenContrast,1137.2307702919934,1138.6134078339965,3,042126sb,001,2026-04-21_14h14.00.801,priming,,2026.1.3,59.93088470071801,2026-04-21 14h14.01.131467 -0700,
GR_Congruent_RedCue_RedProbe_Top,GreenGaborBoth.png,RedGaborBoth.png,GreenGaborBoth.png,RedGaborDisappearTop.png,Red.mp3,red,top,57,57,0,,,,0,57,57,48,1138.6290060000028,,,,,,,,,,,,,,,,top,,,,,,,,1138.6150477089977,1139.0627705419902,1139.0629312919918,1144.3124543750018,1144.319950709003,1145.5624152919918,1145.5641678749816,1148.0628982499766,1148.0637457089906,1151.8299724590033,evensplit,FinalRedContrast,FinalGreenContrast,1151.8311041669804,1154.1632765419781,3,042126sb,001,2026-04-21_14h14.00.801,priming,,2026.1.3,59.93088470071801,2026-04-21 14h14.01.131467 -0700,
GR_Incongruent_GreenCue_RedProbe_Bottom,GreenGaborBoth.png,RedGaborBoth.png,GreenGaborBoth.png,RedGaborDisappearBottom.png,Green.mp3,green,bottom,58,58,0,,,,0,58,58,63,1154.1791035839997,,,,,,,,,,,,,,,,bottom,,,,,,,,1154.1653667920036,1154.8794264169992,1154.8795892089838,1160.1292366669804,1160.1368689590017,1161.3792798339855,1161.3809186669823,1162.8629838749766,1162.864594416984,1164.363326208986,mostlyred,FinalRedContrast,FinalGreenContrast,1164.3642969169887,1165.7134886249842,3,042126sb,001,2026-04-21_14h14.00.801,priming,,2026.1.3,59.93088470071801,2026-04-21 14h14.01.131467 -0700,
GR_Congruent_RedCue_RedProbe_Bottom,GreenGaborBoth.png,RedGaborBoth.png,GreenGaborBoth.png,RedGaborDisappearBottom.png,Red.mp3,red,bottom,59,59,0,,,,0,59,59,33,1165.7291875839874,,,,,,,,,,,,,,,,bottom,,,,,,,,1165.7151725000003,1166.0962031249946,1166.0963686250034,1171.34579695898,1171.352296875004,1172.5958612499817,1172.5978217499796,1174.0130713749968,1174.0137422919797,1174.9468177089875,mostlyred,FinalRedContrast,FinalGreenContrast,1174.9474010839767,1176.996740749979,3,042126sb,001,2026-04-21_14h14.00.801,priming,,2026.1.3,59.93088470071801,2026-04-21 14h14.01.131467 -0700,
GR_Congruent_GreenCue_GreenProbe_Top,GreenGaborBoth.png,RedGaborBoth.png,GreenGaborDisappearTop.png,RedGaborBoth.png,Green.mp3,green,top,60,60,0,,,,0,60,60,26,1177.0124986250012,,,,,,,,,,,,,,,,top,,,,,,,,1176.9987147499924,1177.6296968749957,1177.6298849589948,1182.879291166988,1182.886832166987,1184.1292200419994,1184.1308027920022,1185.4963484999898,1185.4978880419803,1186.6300451669958,mostlygreen,FinalRedContrast,FinalGreenContrast,1186.6311477919808,1187.763441874995,3,042126sb,001,2026-04-21_14h14.00.801,priming,,2026.1.3,59.93088470071801,2026-04-21 14h14.01.131467 -0700,
GG_non_riv_catch_RedCue_GreenProbe_Bottom,GreenGaborBoth.png,Blank.png,GreenGaborDisappearBottom.png,Blank.png,Red.mp3,red,bottom,61,61,0,,,,0,61,61,77,1187.7791924589837,,,,,,,,,,,,,,,,bottom,,,,,,,,1187.765299583989,1188.4462933749892,1188.446457833983,1193.696041166986,1193.7028227919945,1194.9459424169909,1194.9479205840034,1196.729763084004,1196.7315206670028,1198.646919958992,allgreen,FinalRedContrast,FinalGreenContrast,1198.6472679169965,1200.2801992089953,3,042126sb,001,2026-04-21_14h14.00.801,priming,,2026.1.3,59.93088470071801,2026-04-21 14h14.01.131467 -0700,
GR_Incongruent_RedCue_GreenProbe_Bottom,GreenGaborBoth.png,RedGaborBoth.png,GreenGaborDisappearBottom.png,RedGaborBoth.png,Red.mp3,red,bottom,62,62,0,,,,0,62,62,45,1200.2959399999818,,,,,,,,,,,,,,,,bottom,,,,,,,,1200.2803249169956,1200.913058541977,1200.9132216669968,1206.1626942089933,1206.1692349999794,1207.4127411249792,1207.4143639999966,1210.1631416669989,1210.1645918339782,1211.7136622089893,mostlygreen,FinalRedContrast,FinalGreenContrast,1211.7142698749958,1213.5806652089814,3,042126sb,001,2026-04-21_14h14.00.801,priming,,2026.1.3,59.93088470071801,2026-04-21 14h14.01.131467 -0700,
GR_Incongruent_GreenCue_RedProbe_Bottom,GreenGaborBoth.png,RedGaborBoth.png,GreenGaborBoth.png,RedGaborDisappearBottom.png,Green.mp3,green,bottom,63,63,0,,,,0,63,63,7,1213.5959997919854,,,,,,,,,,,,,,,,bottom,,,,,,,,1213.582549541985,1214.2630154590006,1214.2631768749852,1219.5127707089996,1219.5193135000009,1220.7626677919761,1220.7644025839982,1222.5464292919787,1222.5483963339939,1224.9635700419894,mostlyred,FinalRedContrast,FinalGreenContrast,1224.9647255000018,1226.7636421670031,2,042126sb,001,2026-04-21_14h14.00.801,priming,,2026.1.3,59.93088470071801,2026-04-21 14h14.01.131467 -0700,
GR_Incongruent_RedCue_GreenProbe_Top,GreenGaborBoth.png,RedGaborBoth.png,GreenGaborDisappearTop.png,RedGaborBoth.png,Red.mp3,red,top,64,64,0,,,,0,64,64,4,1226.7794654589961,,,,,,,,,,,,,,,,top,,,,,,,,1226.7653690419975,1227.180118291988,1227.180297208979,1232.4295281669765,1232.4360843749892,1233.679553458991,1233.6807789589802,1234.5632834999997,1234.56474320899,1236.7136705000012,mostlygreen,FinalRedContrast,FinalGreenContrast,1236.7143013339955,1238.3303681249963,3,042126sb,001,2026-04-21_14h14.00.801,priming,,2026.1.3,59.93088470071801,2026-04-21 14h14.01.131467 -0700,
GR_Incongruent_GreenCue_RedProbe_Top,GreenGaborBoth.png,RedGaborBoth.png,GreenGaborBoth.png,RedGaborDisappearTop.png,Green.mp3,green,top,65,65,0,,,,0,65,65,22,1238.3461427500006,,,,,,,,,,,,,,,,top,,,,,,,,1238.3322894999874,1238.9298604170035,1238.930023666995,1244.179408291995,1244.186901374982,1245.4295530419913,1245.430963583989,1248.0466029999952,1248.0482412499841,1250.6138488749857,mostlyred,FinalRedContrast,FinalGreenContrast,1250.6144906249829,1253.3640891669784,2,042126sb,001,2026-04-21_14h14.00.801,priming,,2026.1.3,59.93088470071801,2026-04-21 14h14.01.131467 -0700,
GR_Incongruent_RedCue_GreenProbe_Bottom,GreenGaborBoth.png,RedGaborBoth.png,GreenGaborDisappearBottom.png,RedGaborBoth.png,Red.mp3,red,bottom,66,66,0,,,,0,66,66,53,1253.3794131669856,,,,,,,,,,,,,,,,bottom,,,,,,,,1253.3657445419813,1254.396689791989,1254.3968512919964,1259.6461338340014,1259.6546035840001,1260.8960522919951,1260.8975442919764,1261.6133795419883,1261.6148355839832,1262.6805094169977,mostlyred,FinalRedContrast,FinalGreenContrast,1262.6815731249808,1264.1805432499968,3,042126sb,001,2026-04-21_14h14.00.801,priming,,2026.1.3,59.93088470071801,2026-04-21 14h14.01.131467 -0700,
GR_Incongruent_GreenCue_RedProbe_Bottom,GreenGaborBoth.png,RedGaborBoth.png,GreenGaborBoth.png,RedGaborDisappearBottom.png,Green.mp3,green,bottom,67,67,0,,,,0,67,67,31,1264.196138874977,,,,,,,,,,,,,,,,bottom,,,,,,,,1264.182485874975,1264.7966358339763,1264.7968000839755,1270.0463028340018,1270.053923749976,1271.2962256669998,1271.2978982919885,1272.3967707499978,1272.3976360840024,1273.1971286249754,mostlyred,FinalRedContrast,FinalGreenContrast,1273.19805258399,1275.5138664169936,3,042126sb,001,2026-04-21_14h14.00.801,priming,,2026.1.3,59.93088470071801,2026-04-21 14h14.01.131467 -0700,
GR_Congruent_RedCue_RedProbe_Top,GreenGaborBoth.png,RedGaborBoth.png,GreenGaborBoth.png,RedGaborDisappearTop.png,Red.mp3,red,top,68,68,0,,,,0,68,68,0,1275.5295695419773,,,,,,,,,,,,,,,,top,,,,,,,,1275.5155249169911,1276.1132461249945,1276.1134103749937,1281.3629214589891,1281.3704645839753,1282.6130275839823,1282.6147334169946,1283.8300722919812,1283.8307904590038,1285.013680709002,mostlyred,FinalRedContrast,FinalGreenContrast,1285.0147954169952,1286.4137552499888,3,042126sb,001,2026-04-21_14h14.00.801,priming,,2026.1.3,59.93088470071801,2026-04-21 14h14.01.131467 -0700,
RR_non_riv_catch_RedCue_RedProbe_Top,Blank.png,RedGaborBoth.png,Blank.png,RedGaborDisappearTop.png,Red.mp3,red,top,69,69,0,,,,0,69,69,72,1286.4295230839925,,,,,,,,,,,,,,,,top,,,,,,,,1286.4138571249787,1286.8799192089937,1286.8800809999811,1292.1295948339975,1292.1358471249987,1293.3796703749977,1293.38101141699,1294.1633504999918,1294.164999583998,1295.180452667002,allred,FinalRedContrast,FinalGreenContrast,1295.1816131669912,1297.9139680840017,3,042126sb,001,2026-04-21_14h14.00.801,priming,,2026.1.3,59.93088470071801,2026-04-21 14h14.01.131467 -0700,
GR_Congruent_RedCue_RedProbe_Bottom,GreenGaborBoth.png,RedGaborBoth.png,GreenGaborBoth.png,RedGaborDisappearBottom.png,Red.mp3,red,bottom,70,70,0,,,,0,70,70,17,1297.929704041977,,,,,,,,,,,,,,,,bottom,,,,,,,,1297.9140693749941,1298.5467508339789,1298.5469116249878,1303.7964808339893,1303.8030252919998,1305.046419374994,1305.0484067499929,1307.0635793339752,1307.0645525839936,1307.9972379999817,mostlyred,FinalRedContrast,FinalGreenContrast,1307.9983704169863,1308.8639179999882,3,042126sb,001,2026-04-21_14h14.00.801,priming,,2026.1.3,59.93088470071801,2026-04-21 14h14.01.131467 -0700,
GR_Incongruent_RedCue_GreenProbe_Top,GreenGaborBoth.png,RedGaborBoth.png,GreenGaborDisappearTop.png,RedGaborBoth.png,Red.mp3,red,top,71,71,0,,,,0,71,71,52,1308.8797094589972,,,,,,,,,,,,,,,,top,,,,,,,,1308.8640167499834,1309.2967318339797,1309.2968964589818,1314.546467416978,1314.5535959169792,1315.796448166977,1315.797867958987,1316.6636369589833,1316.6652169589943,1318.8639463339932,evensplit,FinalRedContrast,FinalGreenContrast,1318.865139208996,1319.797294374992,3,042126sb,001,2026-04-21_14h14.00.801,priming,,2026.1.3,59.93088470071801,2026-04-21 14h14.01.131467 -0700,
GR_Congruent_GreenCue_GreenProbe_Bottom,GreenGaborBoth.png,RedGaborBoth.png,GreenGaborDisappearBottom.png,RedGaborBoth.png,Green.mp3,green,bottom,72,72,0,,,,0,72,72,35,1319.8129170839966,,,,,,,,,,,,,,,,bottom,,,,,,,,1319.7992412089952,1320.2300622089824,1320.2302274169924,1325.4797359169752,1325.487272792001,1326.7297471670026,1326.731444791978,1328.1801633749856,1328.1816559169965,1330.3138735840039,allgreen,FinalRedContrast,FinalGreenContrast,1330.3151805840025,1332.3641083339753,3,042126sb,001,2026-04-21_14h14.00.801,priming,,2026.1.3,59.93088470071801,2026-04-21 14h14.01.131467 -0700,
GR_Incongruent_RedCue_GreenProbe_Bottom,GreenGaborBoth.png,RedGaborBoth.png,GreenGaborDisappearBottom.png,RedGaborBoth.png,Red.mp3,red,bottom,73,73,0,,,,0,73,73,5,1332.3798082499998,,,,,,,,,,,,,,,,bottom,,,,,,,,1332.3658601669886,1332.7801695419766,1332.7803298340004,1338.02983408398,1338.0363667089841,1339.2798464589869,1339.2813888749806,1340.1802914589935,1340.1818494999898,1342.7473935000016,allgreen,FinalRedContrast,FinalGreenContrast,1342.748473041982,1343.88064316698,3,042126sb,001,2026-04-21_14h14.00.801,priming,,2026.1.3,59.93088470071801,2026-04-21 14h14.01.131467 -0700,
GR_Incongruent_RedCue_GreenProbe_Bottom,GreenGaborBoth.png,RedGaborBoth.png,GreenGaborDisappearBottom.png,RedGaborBoth.png,Red.mp3,red,bottom,74,74,0,,,,0,74,74,13,1343.8963642919844,,,,,,,,,,,,,,,,bottom,,,,,,,,1343.8807463749836,1344.2468603339803,1344.2470242089767,1349.4965486250003,1349.5030958339921,1350.7465430419834,1350.7480446249829,1353.1470019999833,1353.1486173339945,1354.4307557089778,mostlygreen,FinalRedContrast,FinalGreenContrast,1354.4322829589946,1355.797465541982,3,042126sb,001,2026-04-21_14h14.00.801,priming,,2026.1.3,59.93088470071801,2026-04-21 14h14.01.131467 -0700,
GR_Incongruent_GreenCue_RedProbe_Bottom,GreenGaborBoth.png,RedGaborBoth.png,GreenGaborBoth.png,RedGaborDisappearBottom.png,Green.mp3,green,bottom,75,75,0,,,,0,75,75,71,1355.813156166987,,,,,,,,,,,,,,,,bottom,,,,,,,,1355.799493917002,1356.346766417002,1356.3469275419775,1361.596434416977,1361.6029493749957,1362.846557833982,1362.8483032090007,1365.9803045839944,1365.9818903749983,1367.9975935839757,mostlyred,FinalRedContrast,FinalGreenContrast,1367.9984202499909,1369.8309029589873,1,042126sb,001,2026-04-21_14h14.00.801,priming,,2026.1.3,59.93088470071801,2026-04-21 14h14.01.131467 -0700,
GR_Congruent_GreenCue_GreenProbe_Top,GreenGaborBoth.png,RedGaborBoth.png,GreenGaborDisappearTop.png,RedGaborBoth.png,Green.mp3,green,top,76,76,0,,,,0,76,76,66,1369.8465942499752,,,,,,,,,,,,,,,,top,,,,,,,,1369.831005791988,1370.8636761669768,1370.8638395839953,1376.1133182499907,1376.1216930839873,1377.3633150839887,1377.3655110419786,1379.2471301249752,1379.2481083339953,1380.1645691249869,evensplit,FinalRedContrast,FinalGreenContrast,1380.1648411669885,1382.3308818749792,3,042126sb,001,2026-04-21_14h14.00.801,priming,,2026.1.3,59.93088470071801,2026-04-21 14h14.01.131467 -0700,
GR_Congruent_RedCue_RedProbe_Top,GreenGaborBoth.png,RedGaborBoth.png,GreenGaborBoth.png,RedGaborDisappearTop.png,Red.mp3,red,top,77,77,0,,,,0,77,77,56,1382.3466346669884,,,,,,,,,,,,,,,,top,,,,,,,,1382.3326031669858,1382.797007333982,1382.797167874989,1388.046620291978,1388.054209583992,1389.2967017919873,1389.298105208989,1391.4971237919817,1391.498138791998,1395.9144758339971,mostlyred,FinalRedContrast,FinalGreenContrast,1395.915491916996,1396.947432874993,3,042126sb,001,2026-04-21_14h14.00.801,priming,,2026.1.3,59.93088470071801,2026-04-21 14h14.01.131467 -0700,
GR_Congruent_GreenCue_GreenProbe_Bottom,GreenGaborBoth.png,RedGaborBoth.png,GreenGaborDisappearBottom.png,RedGaborBoth.png,Green.mp3,green,bottom,78,78,0,,,,0,78,78,19,1396.9632709589787,,,,,,,,,,,,,,,,bottom,,,,,,,,1396.9495273339853,1397.7640661249752,1397.764228666987,1403.013467333978,1403.0210888339789,1404.263498958986,1404.2648116670025,1405.380572958995,1405.3821375839761,1406.5143917090027,mostlygreen,FinalRedContrast,FinalGreenContrast,1406.5153842500004,1407.6810039169795,3,042126sb,001,2026-04-21_14h14.00.801,priming,,2026.1.3,59.93088470071801,2026-04-21 14h14.01.131467 -0700,
GR_Incongruent_GreenCue_RedProbe_Top,GreenGaborBoth.png,RedGaborBoth.png,GreenGaborBoth.png,RedGaborDisappearTop.png,Green.mp3,green,top,79,79,0,,,,0,79,79,70,1407.6967808339978,,,,,,,,,,,,,,,,top,,,,,,,,1407.6811154589814,1408.0970758749754,1408.0972398339945,1413.3468411249924,1413.3543711669918,1414.596798166982,1414.5980752089818,1415.8638954999915,1415.865025624982,1417.5810400839837,mostlyred,FinalRedContrast,FinalGreenContrast,1417.5820061669801,1418.5809877089923,3,042126sb,001,2026-04-21_14h14.00.801,priming,,2026.1.3,59.93088470071801,2026-04-21 14h14.01.131467 -0700,
GR_Congruent_GreenCue_GreenProbe_Top,GreenGaborBoth.png,RedGaborBoth.png,GreenGaborDisappearTop.png,RedGaborBoth.png,Green.mp3,green,top,80,0,1,,,,1,0,80,26,1418.596734833991,,,,,,,,,,,,,,,,top,,,,,,,,1418.5810870839923,1419.1971283339954,1419.1972887500015,1424.4467143749935,1424.4544417919824,1425.696870166983,1425.6982230419817,1427.0138322089915,1427.0152021249814,1429.0309663339867,mostlyred,FinalRedContrast,FinalGreenContrast,1429.0318002919958,1430.2475460839923,3,042126sb,001,2026-04-21_14h14.00.801,priming,,2026.1.3,59.93088470071801,2026-04-21 14h14.01.131467 -0700,
GR_Congruent_GreenCue_GreenProbe_Top,GreenGaborBoth.png,RedGaborBoth.png,GreenGaborDisappearTop.png,RedGaborBoth.png,Green.mp3,green,top,81,1,1,,,,1,1,81,66,1430.2634808750008,,,,,,,,,,,,,,,,top,,,,,,,,1430.2476915419975,1430.6304722919886,1430.6306390419777,1435.8801903339918,1435.8867488749966,1437.1302691669844,1437.1319165419845,1439.480657166976,1439.4824758339964,1440.7144875839876,evensplit,FinalRedContrast,FinalGreenContrast,1440.7154767919856,1441.5648193339875,3,042126sb,001,2026-04-21_14h14.00.801,priming,,2026.1.3,59.93088470071801,2026-04-21 14h14.01.131467 -0700,
GR_Incongruent_RedCue_GreenProbe_Bottom,GreenGaborBoth.png,RedGaborBoth.png,GreenGaborDisappearBottom.png,RedGaborBoth.png,Red.mp3,red,bottom,82,2,1,,,,1,2,82,5,1441.580199499993,,,,,,,,,,,,,,,,bottom,,,,,,,,1441.5664381669776,1441.9304903339944,1441.9306528339803,1447.180326333997,1447.187913458998,1448.430231708975,1448.431996333995,1449.3974307919852,1449.3981067499844,1451.0311606249888,mostlyred,FinalRedContrast,FinalGreenContrast,1451.0317986249865,1452.2644822089933,3,042126sb,001,2026-04-21_14h14.00.801,priming,,2026.1.3,59.93088470071801,2026-04-21 14h14.01.131467 -0700,
GR_Congruent_GreenCue_GreenProbe_Top,GreenGaborBoth.png,RedGaborBoth.png,GreenGaborDisappearTop.png,RedGaborBoth.png,Green.mp3,green,top,83,3,1,,,,1,3,83,10,1452.280144874996,,,,,,,,,,,,,,,,top,,,,,,,,1452.2664137499814,1452.6305688749999,1452.630732458987,1457.8803143749828,1457.886873749987,1459.130262999999,1459.1318048340036,1460.5306809589965,1460.5322630419978,1463.9810243749816,mostlyred,FinalRedContrast,FinalGreenContrast,1463.9821524999861,1465.4478117499966,3,042126sb,001,2026-04-21_14h14.00.801,priming,,2026.1.3,59.93088470071801,2026-04-21 14h14.01.131467 -0700,
GR_Incongruent_RedCue_GreenProbe_Top,GreenGaborBoth.png,RedGaborBoth.png,GreenGaborDisappearTop.png,RedGaborBoth.png,Red.mp3,red,top,84,4,1,,,,1,4,84,68,1465.463609583996,,,,,,,,,,,,,,,,top,,,,,,,,1465.4495273749926,1465.9304953749815,1465.930661166989,1471.180395124975,1471.18697374998,1472.4302888340026,1472.4319531669898,1474.7478777499928,1474.7484938749985,1478.431184874993,mostlygreen,FinalRedContrast,FinalGreenContrast,1478.4323507919908,1481.2646053339995,2,042126sb,001,2026-04-21_14h14.00.801,priming,,2026.1.3,59.93088470071801,2026-04-21 14h14.01.131467 -0700,
GR_Incongruent_GreenCue_RedProbe_Bottom,GreenGaborBoth.png,RedGaborBoth.png,GreenGaborBoth.png,RedGaborDisappearBottom.png,Green.mp3,green,bottom,85,5,1,,,,1,5,85,23,1481.2803453749802,,,,,,,,,,,,,,,,top,,,,,,,,1481.2665782919794,1482.3973291669972,1482.3974912919803,1487.647031749977,1487.6546632919926,1488.8970687499968,1488.8989586669777,1491.280999583978,1491.2825832919916,1494.847973541997,allgreen,FinalRedContrast,FinalGreenContrast,1494.8486340839881,1496.5478871249943,3,042126sb,001,2026-04-21_14h14.00.801,priming,,2026.1.3,59.93088470071801,2026-04-21 14h14.01.131467 -0700,
GR_Congruent_RedCue_RedProbe_Bottom,GreenGaborBoth.png,RedGaborBoth.png,GreenGaborBoth.png,RedGaborDisappearBottom.png,Red.mp3,red,bottom,86,6,1,,,,1,6,86,65,1496.5636905839783,,,,,,,,,,,,,,,,bottom,,,,,,,,1496.5497372089885,1497.3641399999906,1497.364303541981,1502.6137757919787,1502.621243083995,1503.8638321670005,1503.8655789589975,1506.1310043749982,1506.1324568749988,1507.1480219590012,mostlyred,FinalRedContrast,FinalGreenContrast,1507.1490226669994,1509.1813938339765,3,042126sb,001,2026-04-21_14h14.00.801,priming,,2026.1.3,59.93088470071801,2026-04-21 14h14.01.131467 -0700,
GR_Incongruent_RedCue_GreenProbe_Bottom,GreenGaborBoth.png,RedGaborBoth.png,GreenGaborDisappearBottom.png,RedGaborBoth.png,Red.mp3,red,bottom,87,7,1,,,,1,7,87,29,1509.1970484170015,,,,,,,,,,,,,,,,bottom,,,,,,,,1509.181502291991,1509.730851417,1509.731016167003,1514.9805004169757,1514.9882479169755,1516.230557834002,1516.2318030000024,1517.647595708986,1517.6490625419829,1518.564714166976,mostlygreen,FinalRedContrast,FinalGreenContrast,1518.5657426249818,1524.7146980839898,3,042126sb,001,2026-04-21_14h14.00.801,priming,,2026.1.3,59.93088470071801,2026-04-21 14h14.01.131467 -0700,
GR_Congruent_RedCue_RedProbe_Bottom,GreenGaborBoth.png,RedGaborBoth.png,GreenGaborBoth.png,RedGaborDisappearBottom.png,Red.mp3,red,bottom,88,8,1,,,,1,8,88,17,1524.7304545840016,,,,,,,,,,,,,,,,bottom,,,,,,,,1524.7148009999946,1525.2142587919952,1525.2144222089846,1530.4641011669883,1530.471420499991,1531.713910749997,1531.7152779999888,1532.8143544589984,1532.8153347089828,1533.3648008749878,mostlyred,FinalRedContrast,FinalGreenContrast,1533.3650892089936,1535.7980822919926,3,042126sb,001,2026-04-21_14h14.00.801,priming,,2026.1.3,59.93088470071801,2026-04-21 14h14.01.131467 -0700,
GR_Congruent_GreenCue_GreenProbe_Top,GreenGaborBoth.png,RedGaborBoth.png,GreenGaborDisappearTop.png,RedGaborBoth.png,Green.mp3,green,top,89,9,1,,,,1,9,89,2,1535.8137808339961,,,,,,,,,,,,,,,,top,,,,,,,,1535.8000667919987,1536.4641642089991,1536.464324333996,1541.7139861669857,1541.7224027499906,1542.9639998749772,1542.9652002919756,1543.6977092919988,1543.6988772919867,1544.3313999169914,mostlyred,FinalRedContrast,FinalGreenContrast,1544.3328693340009,1545.5814218749874,3,042126sb,001,2026-04-21_14h14.00.801,priming,,2026.1.3,59.93088470071801,2026-04-21 14h14.01.131467 -0700,
GR_Congruent_GreenCue_GreenProbe_Top,GreenGaborBoth.png,RedGaborBoth.png,GreenGaborDisappearTop.png,RedGaborBoth.png,Green.mp3,green,top,90,10,1,,,,1,10,90,34,1545.5971881249861,,,,,,,,,,,,,,,,top,,,,,,,,1545.5815218339849,1546.0809262919938,1546.0810915839975,1551.3307150839828,1551.3384483339905,1552.580564709002,1552.582394750003,1553.7810537919868,1553.7827729589771,1554.598075041984,evensplit,FinalRedContrast,FinalGreenContrast,1554.5994461249793,1555.6981513749924,3,042126sb,001,2026-04-21_14h14.00.801,priming,,2026.1.3,59.93088470071801,2026-04-21 14h14.01.131467 -0700,
GR_Incongruent_GreenCue_RedProbe_Bottom,GreenGaborBoth.png,RedGaborBoth.png,GreenGaborBoth.png,RedGaborDisappearBottom.png,Green.mp3,green,bottom,91,11,1,,,,1,11,91,39,1555.713847499981,,,,,,,,,,,,,,,,bottom,,,,,,,,1555.6983151669847,1556.1475805419905,1556.1477422089956,1561.3972094589844,1561.4045861669874,1562.6472552499908,1562.6493152919866,1565.0810803749773,1565.0827982499904,1567.7314019999758,evensplit,FinalRedContrast,FinalGreenContrast,1567.7322169589752,1569.8148183749872,3,042126sb,001,2026-04-21_14h14.00.801,priming,,2026.1.3,59.93088470071801,2026-04-21 14h14.01.131467 -0700,
GR_Incongruent_GreenCue_RedProbe_Bottom,GreenGaborBoth.png,RedGaborBoth.png,GreenGaborBoth.png,RedGaborDisappearBottom.png,Green.mp3,green,bottom,92,12,1,,,,1,12,92,47,1569.8305923339794,,,,,,,,,,,,,,,,top,,,,,,,,1569.8149475419777,1570.164374666987,1570.164537292003,1575.4140482499788,1575.4217590419867,1576.6640728749917,1576.6657113749825,1580.164546541986,1580.1660476249817,1583.2649957919784,mostlygreen,FinalRedContrast,FinalGreenContrast,1583.2661542499845,1585.3650379169849,3,042126sb,001,2026-04-21_14h14.00.801,priming,,2026.1.3,59.93088470071801,2026-04-21 14h14.01.131467 -0700,
GR_Congruent_RedCue_RedProbe_Top,GreenGaborBoth.png,RedGaborBoth.png,GreenGaborBoth.png,RedGaborDisappearTop.png,Red.mp3,red,top,93,13,1,,,,1,13,93,16,1585.380779375002,,,,,,,,,,,,,,,,bottom,,,,,,,,1585.3669842089876,1585.8146401669946,1585.8148046669958,1591.0641002499906,1591.07168295898,1592.3141020839976,1592.3158302499796,1594.147930334002,1594.1494451249891,1596.1649803749751,mostlyred,FinalRedContrast,FinalGreenContrast,1596.1659304589848,1598.2316035839904,3,042126sb,001,2026-04-21_14h14.00.801,priming,,2026.1.3,59.93088470071801,2026-04-21 14h14.01.131467 -0700,
GR_Congruent_GreenCue_GreenProbe_Bottom,GreenGaborBoth.png,RedGaborBoth.png,GreenGaborDisappearBottom.png,RedGaborBoth.png,Green.mp3,green,bottom,94,14,1,,,,1,14,94,67,1598.2472723749815,,,,,,,,,,,,,,,,bottom,,,,,,,,1598.2336411669967,1598.9311062499764,1598.9312743339979,1604.1808237090008,1604.1884668339917,1605.4307545839984,1605.4320625839755,1606.2811707499786,1606.2826643750013,1607.9817712089862,mostlygreen,FinalRedContrast,FinalGreenContrast,1607.982445583999,1610.0316866670037,3,042126sb,001,2026-04-21_14h14.00.801,priming,,2026.1.3,59.93088470071801,2026-04-21 14h14.01.131467 -0700,
GR_Congruent_GreenCue_GreenProbe_Bottom,GreenGaborBoth.png,RedGaborBoth.png,GreenGaborDisappearBottom.png,RedGaborBoth.png,Green.mp3,green,bottom,95,15,1,,,,1,15,95,59,1610.0474681249761,,,,,,,,,,,,,,,,bottom,,,,,,,,1610.031787749991,2023.782654791983,2023.7828187499836,2029.03230320898,2029.0414404999756,2030.282311166986,2030.2842282089987,2031.9162260000012,2031.9171704589971,2032.4833859589999,evensplit,FinalRedContrast,FinalGreenContrast,2032.4838432499964,2034.6666994169937,3,042126sb,001,2026-04-21_14h14.00.801,priming,,2026.1.3,59.93088470071801,2026-04-21 14h14.01.131467 -0700,
GR_Incongruent_GreenCue_RedProbe_Top,GreenGaborBoth.png,RedGaborBoth.png,GreenGaborBoth.png,RedGaborDisappearTop.png,Green.mp3,green,top,96,16,1,,,,1,16,96,6,2034.6824183339777,,,,,,,,,,,,,,,,top,,,,,,,,2034.6668011249858,2035.5994647499756,2035.5996279169922,2040.8491978340026,2040.8568095839873,2042.0990313749935,2042.100513374986,2043.6667624999827,2043.6674123339762,2044.6832291669853,evensplit,FinalRedContrast,FinalGreenContrast,2044.6843047500006,2045.9003047919832,3,042126sb,001,2026-04-21_14h14.00.801,priming,,2026.1.3,59.93088470071801,2026-04-21 14h14.01.131467 -0700,
GR_Incongruent_RedCue_GreenProbe_Top,GreenGaborBoth.png,RedGaborBoth.png,GreenGaborDisappearTop.png,RedGaborBoth.png,Red.mp3,red,top,97,17,1,,,,1,17,97,20,2045.9157270419819,,,,,,,,,,,,,,,,top,,,,,,,,2045.9020328749903,2046.9826897089952,2046.9828537089925,2052.2324982919963,2052.2401434999774,2053.482480249979,2053.484231916984,2054.9162728340016,2054.917897874984,2056.683760791988,mostlyred,FinalRedContrast,FinalGreenContrast,2056.6842317089904,2058.3165208749997,3,042126sb,001,2026-04-21_14h14.00.801,priming,,2026.1.3,59.93088470071801,2026-04-21 14h14.01.131467 -0700,
GR_Congruent_RedCue_RedProbe_Bottom,GreenGaborBoth.png,RedGaborBoth.png,GreenGaborBoth.png,RedGaborDisappearBottom.png,Red.mp3,red,bottom,98,18,1,,,,1,18,98,49,2058.3323781669897,,,,,,,,,,,,,,,,bottom,,,,,,,,2058.3166208749753,2059.082771708985,2059.0829309999826,2064.3324510839884,2064.3395750419877,2065.5825794589764,2065.5843703339924,2066.2996718339855,2066.3013898339996,2067.800082834001,mostlyred,FinalRedContrast,FinalGreenContrast,2067.801364958985,2069.533500999998,3,042126sb,001,2026-04-21_14h14.00.801,priming,,2026.1.3,59.93088470071801,2026-04-21 14h14.01.131467 -0700,
GR_Incongruent_RedCue_GreenProbe_Bottom,GreenGaborBoth.png,RedGaborBoth.png,GreenGaborDisappearBottom.png,RedGaborBoth.png,Red.mp3,red,bottom,99,19,1,,,,1,19,99,13,2069.549210792,,,,,,,,,,,,,,,,bottom,,,,,,,,2069.5336087920005,2070.432941084,2070.4331006249995,2075.682653625001,2075.6891442920023,2076.9326734170027,2076.9338650839927,2078.08307254198,2078.08462566699,2079.500167166989,mostlyred,FinalRedContrast,FinalGreenContrast,2079.500442999997,2080.8167484999867,3,042126sb,001,2026-04-21_14h14.00.801,priming,,2026.1.3,59.93088470071801,2026-04-21 14h14.01.131467 -0700,
RR_non_riv_catch_GreenCue_RedProbe_Top,Blank.png,RedGaborBoth.png,Blank.png,RedGaborDisappearTop.png,Green.mp3,green,top,100,20,1,,,,1,20,100,74,2080.8324803749856,,,,,,,,,,,,,,,,top,,,,,,,,2080.818690458982,2081.332865042001,2081.333031291986,2086.5827175419836,2086.5890377500036,2087.832598624984,2087.834387958981,2088.799723834003,2088.8015065419895,2090.633411374991,allred,FinalRedContrast,FinalGreenContrast,2090.6346161249967,2091.4667854169966,3,042126sb,001,2026-04-21_14h14.00.801,priming,,2026.1.3,59.93088470071801,2026-04-21 14h14.01.131467 -0700,
GR_Congruent_RedCue_RedProbe_Top,GreenGaborBoth.png,RedGaborBoth.png,GreenGaborBoth.png,RedGaborDisappearTop.png,Red.mp3,red,top,101,21,1,,,,1,21,101,64,2091.4825040839787,,,,,,,,,,,,,,,,top,,,,,,,,2091.4686303749913,2091.866256084002,2091.86641841699,2097.11596354199,2097.1242855419987,2098.365912416979,2098.3676754169865,2099.683423208975,2099.6839144589903,2100.833586875,mostlyred,FinalRedContrast,FinalGreenContrast,2100.834293333988,2101.616891166981,3,042126sb,001,2026-04-21_14h14.00.801,priming,,2026.1.3,59.93088470071801,2026-04-21 14h14.01.131467 -0700,
GR_Incongruent_RedCue_GreenProbe_Bottom,GreenGaborBoth.png,RedGaborBoth.png,GreenGaborDisappearBottom.png,RedGaborBoth.png,Red.mp3,red,bottom,102,22,1,,,,1,22,102,37,2101.632658916991,,,,,,,,,,,,,,,,bottom,,,,,,,,2101.6170347089937,2102.1996775000007,2102.1998375839903,2107.449426166975,2107.4570216669817,2108.699436583993,2108.701150374982,2110.866898084001,2110.867561124993,2111.9169756670017,mostlyred,FinalRedContrast,FinalGreenContrast,2111.917748624983,2113.4502534589847,3,042126sb,001,2026-04-21_14h14.00.801,priming,,2026.1.3,59.93088470071801,2026-04-21 14h14.01.131467 -0700,
GR_Incongruent_GreenCue_RedProbe_Top,GreenGaborBoth.png,RedGaborBoth.png,GreenGaborBoth.png,RedGaborDisappearTop.png,Green.mp3,green,top,103,23,1,,,,1,23,103,38,2113.466018291976,,,,,,,,,,,,,,,,top,,,,,,,,2113.4523377089936,2113.8667005839816,2113.8668853339914,2119.1160784589883,2119.1225995419954,2120.365934292,2120.367820124986,2121.449838624976,2121.4513987499813,2122.166824041982,mostlyred,FinalRedContrast,FinalGreenContrast,2122.167602542002,2122.7169332919875,3,042126sb,001,2026-04-21_14h14.00.801,priming,,2026.1.3,59.93088470071801,2026-04-21 14h14.01.131467 -0700,
GR_Congruent_RedCue_RedProbe_Bottom,GreenGaborBoth.png,RedGaborBoth.png,GreenGaborBoth.png,RedGaborDisappearBottom.png,Red.mp3,red,bottom,104,24,1,,,,1,24,104,25,2122.732537834003,,,,,,,,,,,,,,,,bottom,,,,,,,,2122.7186510839965,2123.1830007499957,2123.183166749979,2128.432636499987,2128.4402566249773,2129.682726041996,2129.684693291987,2130.2498766669887,2130.2515414169757,2131.183792374999,mostlyred,FinalRedContrast,FinalGreenContrast,2131.184165291983,2133.483759291994,3,042126sb,001,2026-04-21_14h14.00.801,priming,,2026.1.3,59.93088470071801,2026-04-21 14h14.01.131467 -0700,
GG_non_riv_catch_GreenCue_GreenProbe_Top,GreenGaborBoth.png,Blank.png,GreenGaborDisappearTop.png,Blank.png,Green.mp3,green,top,105,25,1,,,,1,25,105,78,2133.499416124978,,,,,,,,,,,,,,,,top,,,,,,,,2133.4856464999903,2133.8330616249877,2133.8332219169824,2139.0828347499773,2139.0896678749996,2140.332882124989,2140.3345211669803,2142.049852458993,2142.0516091249883,2143.8003676249937,allgreen,FinalRedContrast,FinalGreenContrast,2143.8010539169773,2144.633699541999,3,042126sb,001,2026-04-21_14h14.00.801,priming,,2026.1.3,59.93088470071801,2026-04-21 14h14.01.131467 -0700,
GR_Incongruent_GreenCue_RedProbe_Top,GreenGaborBoth.png,RedGaborBoth.png,GreenGaborBoth.png,RedGaborDisappearTop.png,Green.mp3,green,top,106,26,1,,,,1,26,106,22,2144.649445166986,,,,,,,,,,,,,,,,top,,,,,,,,2144.633802791999,2145.0501587920007,2145.050332416984,2150.29945458399,2150.3070098749886,2151.549496916996,2151.551229874982,2152.5999780839775,2152.6016094590013,2154.0837298339757,mostlyred,FinalRedContrast,FinalGreenContrast,2154.0847081249813,2155.5503657499794,3,042126sb,001,2026-04-21_14h14.00.801,priming,,2026.1.3,59.93088470071801,2026-04-21 14h14.01.131467 -0700,
GR_Incongruent_RedCue_GreenProbe_Bottom,GreenGaborBoth.png,RedGaborBoth.png,GreenGaborDisappearBottom.png,RedGaborBoth.png,Red.mp3,red,bottom,107,27,1,,,,1,27,107,61,2155.5660699169966,,,,,,,,,,,,,,,,bottom,,,,,,,,2155.5520659589965,2156.049949541979,2156.050116667,2161.2995067089796,2161.3071525839914,2162.5495220419834,2162.5513629589987,2164.0333462919807,2164.034476834,2165.850368124986,mostlyred,FinalRedContrast,FinalGreenContrast,2165.8515821670007,2167.2170883340004,3,042126sb,001,2026-04-21_14h14.00.801,priming,,2026.1.3,59.93088470071801,2026-04-21 14h14.01.131467 -0700,
GR_Congruent_RedCue_RedProbe_Bottom,GreenGaborBoth.png,RedGaborBoth.png,GreenGaborBoth.png,RedGaborDisappearBottom.png,Red.mp3,red,bottom,108,28,1,,,,1,28,108,1,2167.232908374979,,,,,,,,,,,,,,,,bottom,,,,,,,,2167.217189541989,2167.76657120898,2167.766731916985,2173.016322874988,2173.024116249988,2174.266426166985,2174.2681972919963,2175.2334015840024,2175.2349278339825,2176.283858791983,mostlyred,FinalRedContrast,FinalGreenContrast,2176.284983999998,2178.7671648749965,3,042126sb,001,2026-04-21_14h14.00.801,priming,,2026.1.3,59.93088470071801,2026-04-21 14h14.01.131467 -0700,
GR_Incongruent_GreenCue_RedProbe_Top,GreenGaborBoth.png,RedGaborBoth.png,GreenGaborBoth.png,RedGaborDisappearTop.png,Green.mp3,green,top,109,29,1,,,,1,29,109,54,2178.782863667002,,,,,,,,,,,,,,,,top,,,,,,,,2178.7691687089973,2179.1167154169816,2179.116886417003,2184.366333958984,2184.3728862499993,2185.6163409999863,2185.61796254199,2187.8167535839893,2187.8186822089774,2188.483831999998,mostlyred,FinalRedContrast,FinalGreenContrast,2188.4847850419756,2190.050475791999,3,042126sb,001,2026-04-21_14h14.00.801,priming,,2026.1.3,59.93088470071801,2026-04-21 14h14.01.131467 -0700,
GR_Incongruent_RedCue_GreenProbe_Bottom,GreenGaborBoth.png,RedGaborBoth.png,GreenGaborDisappearBottom.png,RedGaborBoth.png,Red.mp3,red,bottom,110,30,1,,,,1,30,110,21,2190.066276833997,,,,,,,,,,,,,,,,bottom,,,,,,,,2190.052310291998,2190.850033374998,2190.850198500004,2196.099686667003,2196.106279458996,2197.349642333982,2197.351155749988,2198.200056292,2198.2016040839953,2199.033866499987,mostlyred,FinalRedContrast,FinalGreenContrast,2199.0347447090026,2200.767291917,3,042126sb,001,2026-04-21_14h14.00.801,priming,,2026.1.3,59.93088470071801,2026-04-21 14h14.01.131467 -0700,
GR_Congruent_GreenCue_GreenProbe_Bottom,GreenGaborBoth.png,RedGaborBoth.png,GreenGaborDisappearBottom.png,RedGaborBoth.png,Green.mp3,green,bottom,111,31,1,,,,1,31,111,27,2200.782937583979,,,,,,,,,,,,,,,,bottom,,,,,,,,2200.7692439169914,2201.4834425419976,2201.48360883398,2206.733102917002,2206.7396969999827,2207.983139166987,2207.9846953749948,2210.0506557089975,2210.0513753749838,2211.000651749986,mostlyred,FinalRedContrast,FinalGreenContrast,2211.0012147499947,2212.867260375002,3,042126sb,001,2026-04-21_14h14.00.801,priming,,2026.1.3,59.93088470071801,2026-04-21 14h14.01.131467 -0700,
GR_Congruent_GreenCue_GreenProbe_Bottom,GreenGaborBoth.png,RedGaborBoth.png,GreenGaborDisappearBottom.png,RedGaborBoth.png,Green.mp3,green,bottom,112,32,1,,,,1,32,112,3,2212.8830388339993,,,,,,,,,,,,,,,,bottom,,,,,,,,2212.8673607499804,2214.1668111250037,2214.1669784999976,2219.416458291991,2219.4230586249905,2220.666424916999,2220.668657125003,2221.650264875003,2221.6512321670016,2222.400622416986,mostlyred,FinalRedContrast,FinalGreenContrast,2222.401698834001,2223.133849874983,3,042126sb,001,2026-04-21_14h14.00.801,priming,,2026.1.3,59.93088470071801,2026-04-21 14h14.01.131467 -0700,
GR_Congruent_RedCue_RedProbe_Top,GreenGaborBoth.png,RedGaborBoth.png,GreenGaborBoth.png,RedGaborDisappearTop.png,Red.mp3,red,top,113,33,1,,,,1,33,113,32,2223.149742708978,,,,,,,,,,,,,,,,top,,,,,,,,2223.1355732090014,2224.166755833983,2224.1669197089795,2229.416501458996,2229.4229193339997,2230.6665181249846,2230.667767749983,2231.433905333979,2231.434579291992,2233.1341413749906,mostlyred,FinalRedContrast,FinalGreenContrast,2233.1346864999796,2235.100755749998,3,042126sb,001,2026-04-21_14h14.00.801,priming,,2026.1.3,59.93088470071801,2026-04-21 14h14.01.131467 -0700,
GR_Congruent_RedCue_RedProbe_Top,GreenGaborBoth.png,RedGaborBoth.png,GreenGaborBoth.png,RedGaborDisappearTop.png,Red.mp3,red,top,114,34,1,,,,1,34,114,8,2235.116465542,,,,,,,,,,,,,,,,top,,,,,,,,2235.1008600420028,2235.8836439169827,2235.883828958991,2241.133206833998,2241.1397024589824,2242.3831494589977,2242.385199374985,2244.100355374976,2244.101896541979,2245.034152499982,mostlyred,FinalRedContrast,FinalGreenContrast,2245.0351877089997,2246.1840786669927,3,042126sb,001,2026-04-21_14h14.00.801,priming,,2026.1.3,59.93088470071801,2026-04-21 14h14.01.131467 -0700,
GR_Congruent_RedCue_RedProbe_Top,GreenGaborBoth.png,RedGaborBoth.png,GreenGaborBoth.png,RedGaborDisappearTop.png,Red.mp3,red,top,115,35,1,,,,1,35,115,24,2246.1998179999937,,,,,,,,,,,,,,,,top,,,,,,,,2246.184177791991,2246.8334782919846,2246.833644917002,2252.0830789169995,2252.089576833998,2253.3333122499753,2253.3346587089763,2254.0003473339893,2254.001426791976,2255.267514708976,mostlyred,FinalRedContrast,FinalGreenContrast,2255.268215291988,2257.0174264169764,3,042126sb,001,2026-04-21_14h14.00.801,priming,,2026.1.3,59.93088470071801,2026-04-21 14h14.01.131467 -0700,
GR_Congruent_GreenCue_GreenProbe_Top,GreenGaborBoth.png,RedGaborBoth.png,GreenGaborDisappearTop.png,RedGaborBoth.png,Green.mp3,green,top,116,36,1,,,,1,36,116,50,2257.0330922919966,,,,,,,,,,,,,,,,top,,,,,,,,2257.0194327089994,2257.683569249988,2257.683740458975,2262.933317416988,2262.940921083995,2264.183236666984,2264.185020167002,2264.9336763339816,2264.9352257499995,2266.3840782920015,mostlyred,FinalRedContrast,FinalGreenContrast,2266.3852103749814,2267.984173541976,4,042126sb,001,2026-04-21_14h14.00.801,priming,,2026.1.3,59.93088470071801,2026-04-21 14h14.01.131467 -0700,
GR_Congruent_GreenCue_GreenProbe_Bottom,GreenGaborBoth.png,RedGaborBoth.png,GreenGaborDisappearBottom.png,RedGaborBoth.png,Green.mp3,green,bottom,117,37,1,,,,1,37,117,51,2267.9999912499916,,,,,,,,,,,,,,,,bottom,,,,,,,,2267.9842740839813,2270.500345458975,2270.5005097090034,2275.749970167002,2275.7563838749775,2277.0000535839936,2277.0013098749914,2279.25055716699,2279.2521837919776,2280.300914541993,mostlygreen,FinalRedContrast,FinalGreenContrast,2280.302093584003,2281.7675063749775,3,042126sb,001,2026-04-21_14h14.00.801,priming,,2026.1.3,59.93088470071801,2026-04-21 14h14.01.131467 -0700,
GR_Congruent_GreenCue_GreenProbe_Top,GreenGaborBoth.png,RedGaborBoth.png,GreenGaborDisappearTop.png,RedGaborBoth.png,Green.mp3,green,top,118,38,1,,,,1,38,118,18,2281.7832692090014,,,,,,,,,,,,,,,,top,,,,,,,,2281.767606291978,2282.550315792003,2282.5504810419807,2287.8000769999926,2287.8065563749988,2289.050028958998,2289.0517052919895,2291.0671394169913,2291.0681700839777,2292.267510624981,mostlyred,FinalRedContrast,FinalGreenContrast,2292.268273083988,2293.434235541994,3,042126sb,001,2026-04-21_14h14.00.801,priming,,2026.1.3,59.93088470071801,2026-04-21 14h14.01.131467 -0700,
GR_Congruent_RedCue_RedProbe_Top,GreenGaborBoth.png,RedGaborBoth.png,GreenGaborBoth.png,RedGaborDisappearTop.png,Red.mp3,red,top,119,39,1,,,,1,39,119,40,2293.449879791995,,,,,,,,,,,,,,,,top,,,,,,,,2293.435980166978,2294.2670628339984,2294.2672252919874,2299.5166602919926,2299.5230800419813,2300.7667573340004,2300.7683809169976,2303.1005892919784,2303.1020880839787,2304.0177142089815,mostlyred,FinalRedContrast,FinalGreenContrast,2304.018665166979,2305.4342964589887,3,042126sb,001,2026-04-21_14h14.00.801,priming,,2026.1.3,59.93088470071801,2026-04-21 14h14.01.131467 -0700,
GR_Congruent_RedCue_RedProbe_Top,GreenGaborBoth.png,RedGaborBoth.png,GreenGaborBoth.png,RedGaborDisappearTop.png,Red.mp3,red,top,120,40,1,,,,1,40,120,48,2305.4501047499944,,,,,,,,,,,,,,,,top,,,,,,,,2305.43439983399,2306.034186083998,2306.0343712919857,2311.283443124994,2311.289817333978,2312.533514916984,2312.5350697499816,2313.317205542,2313.318407999992,2314.4345664999855,allgreen,FinalRedContrast,FinalGreenContrast,2314.4348595420015,2317.9677687090007,3,042126sb,001,2026-04-21_14h14.00.801,priming,,2026.1.3,59.93088470071801,2026-04-21 14h14.01.131467 -0700,
GR_Congruent_GreenCue_GreenProbe_Top,GreenGaborBoth.png,RedGaborBoth.png,GreenGaborDisappearTop.png,RedGaborBoth.png,Green.mp3,green,top,121,41,1,,,,1,41,121,58,2317.983403124992,,,,,,,,,,,,,,,,top,,,,,,,,2317.969709249999,2319.4342559999786,2319.4344352499756,2324.6835358339886,2324.6918776669772,2325.9335752499755,2325.935323916987,2328.5172401249874,2328.518389791978,2330.2676568749885,mostlyred,FinalRedContrast,FinalGreenContrast,2330.2688999169914,2333.867624958977,3,042126sb,001,2026-04-21_14h14.00.801,priming,,2026.1.3,59.93088470071801,2026-04-21 14h14.01.131467 -0700,
GR_Incongruent_GreenCue_RedProbe_Bottom,GreenGaborBoth.png,RedGaborBoth.png,GreenGaborBoth.png,RedGaborDisappearBottom.png,Green.mp3,green,bottom,122,42,1,,,,1,42,122,7,2333.8834375839797,,,,,,,,,,,,,,,,bottom,,,,,,,,2333.86772762498,2334.9171963749977,2334.9173611250008,2340.16697749999,2340.175213291979,2341.4169369169977,2341.418453624996,2343.5339554999955,2343.535148750001,2344.8348817499937,mostlyred,FinalRedContrast,FinalGreenContrast,2344.835151708976,2345.63440595899,3,042126sb,001,2026-04-21_14h14.00.801,priming,,2026.1.3,59.93088470071801,2026-04-21 14h14.01.131467 -0700,
GR_Congruent_GreenCue_GreenProbe_Bottom,GreenGaborBoth.png,RedGaborBoth.png,GreenGaborDisappearBottom.png,RedGaborBoth.png,Green.mp3,green,bottom,123,43,1,,,,1,43,123,11,2345.6502046669775,,,,,,,,,,,,,,,,bottom,,,,,,,,2345.6345079999883,2346.41719245899,2346.4173563749937,2351.666955666995,2351.6745405839756,2352.9169605839998,2352.9183194999932,2354.5673785839754,2354.569039541995,2356.017837124993,mostlygreen,FinalRedContrast,FinalGreenContrast,2356.018423292,2357.484490999981,3,042126sb,001,2026-04-21_14h14.00.801,priming,,2026.1.3,59.93088470071801,2026-04-21 14h14.01.131467 -0700,
GR_Incongruent_GreenCue_RedProbe_Top,GreenGaborBoth.png,RedGaborBoth.png,GreenGaborBoth.png,RedGaborDisappearTop.png,Green.mp3,green,top,124,44,1,,,,1,44,124,14,2357.5003382499854,,,,,,,,,,,,,,,,top,,,,,,,,2357.484597417002,2358.017269208998,2358.0174332089955,2363.2669763749873,2363.274564374995,2364.516928625002,2364.51855399998,2365.817478708981,2365.8187743749877,2368.917941291991,mostlyred,FinalRedContrast,FinalGreenContrast,2368.918482374982,2370.9845672499796,3,042126sb,001,2026-04-21_14h14.00.801,priming,,2026.1.3,59.93088470071801,2026-04-21 14h14.01.131467 -0700,
GR_Congruent_RedCue_RedProbe_Bottom,GreenGaborBoth.png,RedGaborBoth.png,GreenGaborBoth.png,RedGaborDisappearBottom.png,Red.mp3,red,bottom,125,45,1,,,,1,45,125,57,2371.000383958977,,,,,,,,,,,,,,,,bottom,,,,,,,,2370.986424333998,2371.667318333988,2371.66748199999,2376.9170707919984,2376.9246411669883,2378.1670604590036,2378.1687838749785,2381.250883874978,2381.2516219999816,2384.167899958993,mostlyred,FinalRedContrast,FinalGreenContrast,2384.169244583987,2385.2183244589833,3,042126sb,001,2026-04-21_14h14.00.801,priming,,2026.1.3,59.93088470071801,2026-04-21 14h14.01.131467 -0700,
GR_Incongruent_RedCue_GreenProbe_Bottom,GreenGaborBoth.png,RedGaborBoth.png,GreenGaborDisappearBottom.png,RedGaborBoth.png,Red.mp3,red,bottom,126,46,1,,,,1,46,126,53,2385.2336991670018,,,,,,,,,,,,,,,,bottom,,,,,,,,2385.2184753749752,2386.0674609589914,2386.0676259169995,2391.3171992919815,2391.325260624988,2392.567060166999,2392.5688016669883,2393.7675082089845,2393.769100124977,2394.6846549589827,mostlyred,FinalRedContrast,FinalGreenContrast,2394.685503249988,2396.184618749976,3,042126sb,001,2026-04-21_14h14.00.801,priming,,2026.1.3,59.93088470071801,2026-04-21 14h14.01.131467 -0700,
GG_non_riv_catch_RedCue_GreenProbe_Top,GreenGaborBoth.png,Blank.png,GreenGaborDisappearTop.png,Blank.png,Red.mp3,red,top,127,47,1,,,,1,47,127,76,2396.200311416993,,,,,,,,,,,,,,,,top,,,,,,,,2396.1847210419946,2396.9673692089855,2396.967531292001,2402.217116749991,2402.2239629589894,2403.467261166981,2403.4687189169927,2405.234313208988,2405.2358087500033,2408.1846993340005,allgreen,FinalRedContrast,FinalGreenContrast,2408.185454166989,2410.0347402089974,3,042126sb,001,2026-04-21_14h14.00.801,priming,,2026.1.3,59.93088470071801,2026-04-21 14h14.01.131467 -0700,
GR_Incongruent_RedCue_GreenProbe_Top,GreenGaborBoth.png,RedGaborBoth.png,GreenGaborDisappearTop.png,RedGaborBoth.png,Red.mp3,red,top,128,48,1,,,,1,48,128,44,2410.050465291977,,,,,,,,,,,,,,,,top,,,,,,,,2410.0348497499945,2410.6674890419818,2410.6676515,2415.917201000004,2415.9237539589813,2417.167246541998,2417.1688449999783,2418.9509891249763,2418.95222079198,2420.201367458998,mostlyred,FinalRedContrast,FinalGreenContrast,2420.2025927919894,2421.2180445839767,3,042126sb,001,2026-04-21_14h14.00.801,priming,,2026.1.3,59.93088470071801,2026-04-21 14h14.01.131467 -0700,
GR_Incongruent_GreenCue_RedProbe_Bottom,GreenGaborBoth.png,RedGaborBoth.png,GreenGaborBoth.png,RedGaborDisappearBottom.png,Green.mp3,green,bottom,129,49,1,,,,1,49,129,63,2421.2337823749986,,,,,,,,,,,,,,,,bottom,,,,,,,,2421.2200405419862,2421.900852208986,2421.901018499979,2427.150596499996,2427.1571794170013,2428.4005485840025,2428.40220195899,2429.300991208991,2429.302860124997,2429.951340667001,mostlyred,FinalRedContrast,FinalGreenContrast,2429.952530333976,2431.3180991249974,3,042126sb,001,2026-04-21_14h14.00.801,priming,,2026.1.3,59.93088470071801,2026-04-21 14h14.01.131467 -0700,
GR_Incongruent_GreenCue_RedProbe_Bottom,GreenGaborBoth.png,RedGaborBoth.png,GreenGaborBoth.png,RedGaborDisappearBottom.png,Green.mp3,green,bottom,130,50,1,,,,1,50,130,31,2431.3337724999874,,,,,,,,,,,,,,,,bottom,,,,,,,,2431.318211083999,2432.284220458998,2432.2843816669774,2437.533987458999,2437.5405821669847,2438.784017750004,2438.7853170419985,2439.684441624995,2439.685946124984,2440.651533875003,mostlyred,FinalRedContrast,FinalGreenContrast,2440.652088916977,2441.7181672499864,3,042126sb,001,2026-04-21_14h14.00.801,priming,,2026.1.3,59.93088470071801,2026-04-21 14h14.01.131467 -0700,
GR_Incongruent_RedCue_GreenProbe_Bottom,GreenGaborBoth.png,RedGaborBoth.png,GreenGaborDisappearBottom.png,RedGaborBoth.png,Red.mp3,red,bottom,131,51,1,,,,1,51,131,69,2441.7339807089884,,,,,,,,,,,,,,,,bottom,,,,,,,,2441.7198149999895,2442.301006041991,2442.301171416999,2447.550731583993,2447.5572983750026,2448.800705791975,2448.8027170839778,2450.7011507089774,2450.70251212499,2451.868252708984,mostlygreen,FinalRedContrast,FinalGreenContrast,2451.868534291978,2452.4181883749843,3,042126sb,001,2026-04-21_14h14.00.801,priming,,2026.1.3,59.93088470071801,2026-04-21 14h14.01.131467 -0700,
GR_Congruent_GreenCue_GreenProbe_Bottom,GreenGaborBoth.png,RedGaborBoth.png,GreenGaborDisappearBottom.png,RedGaborBoth.png,Green.mp3,green,bottom,132,52,1,,,,1,52,132,35,2452.433932999993,,,,,,,,,,,,,,,,bottom,,,,,,,,2452.4201862920017,2452.8509791249817,2452.8511460419977,2458.100653166999,2458.107169875002,2459.3506515419867,2459.352385584003,2461.201096584002,2461.2027850000013,2462.951542374998,mostlygreen,FinalRedContrast,FinalGreenContrast,2462.9525577089807,2464.0848526249756,3,042126sb,001,2026-04-21_14h14.00.801,priming,,2026.1.3,59.93088470071801,2026-04-21 14h14.01.131467 -0700,
GR_Incongruent_GreenCue_RedProbe_Top,GreenGaborBoth.png,RedGaborBoth.png,GreenGaborBoth.png,RedGaborDisappearTop.png,Green.mp3,green,top,133,53,1,,,,1,53,133,70,2464.100592749979,,,,,,,,,,,,,,,,bottom,,,,,,,,2464.0849540419877,2464.7842260839825,2464.7843904589827,2470.0340282499965,2470.041604124999,2471.284068041976,2471.285356916982,2473.6012386249786,2473.602742083982,2475.5017107089807,mostlygreen,FinalRedContrast,FinalGreenContrast,2475.5023607089825,2478.251730624994,3,042126sb,001,2026-04-21_14h14.00.801,priming,,2026.1.3,59.93088470071801,2026-04-21 14h14.01.131467 -0700,
GR_Congruent_RedCue_RedProbe_Bottom,GreenGaborBoth.png,RedGaborBoth.png,GreenGaborBoth.png,RedGaborDisappearBottom.png,Red.mp3,red,bottom,134,54,1,,,,1,54,134,33,2478.267470833991,,,,,,,,,,,,,,,,bottom,,,,,,,,2478.2533649999823,2479.7344994589803,2479.7346641249896,2484.9841304589936,2484.99170754198,2486.234151791985,2486.2356789589976,2487.3012657089857,2487.30249474998,2488.318345124979,mostlyred,FinalRedContrast,FinalGreenContrast,2488.319109584001,2491.668323708989,3,042126sb,001,2026-04-21_14h14.00.801,priming,,2026.1.3,59.93088470071801,2026-04-21 14h14.01.131467 -0700,
GR_Incongruent_RedCue_GreenProbe_Bottom,GreenGaborBoth.png,RedGaborBoth.png,GreenGaborDisappearBottom.png,RedGaborBoth.png,Red.mp3,red,bottom,135,55,1,,,,1,55,135,45,2491.6840897499933,,,,,,,,,,,,,,,,bottom,,,,,,,,2491.668425333977,2493.3177488340007,2493.31791337498,2498.567385292001,2498.573986292002,2499.817447333975,2499.8193414589914,2501.467891999986,2501.469656041998,2502.868439083977,mostlygreen,FinalRedContrast,FinalGreenContrast,2502.8690971669857,2504.3350881669903,3,042126sb,001,2026-04-21_14h14.00.801,priming,,2026.1.3,59.93088470071801,2026-04-21 14h14.01.131467 -0700,
GR_Incongruent_GreenCue_RedProbe_Bottom,GreenGaborBoth.png,RedGaborBoth.png,GreenGaborBoth.png,RedGaborDisappearBottom.png,Green.mp3,green,bottom,136,56,1,,,,1,56,136,55,2504.3508877499844,,,,,,,,,,,,,,,,bottom,,,,,,,,2504.337061874976,2506.3845624589885,2506.3847278750036,2511.6342938339803,2511.64094183399,2512.8842911669926,2512.8858179999806,2513.9180642089923,2513.919135791977,2515.301810499979,mostlyred,FinalRedContrast,FinalGreenContrast,2515.3026652499975,2516.5183399590023,3,042126sb,001,2026-04-21_14h14.00.801,priming,,2026.1.3,59.93088470071801,2026-04-21 14h14.01.131467 -0700,
RR_non_riv_catch_RedCue_RedProbe_Top,Blank.png,RedGaborBoth.png,Blank.png,RedGaborDisappearTop.png,Red.mp3,red,top,137,57,1,,,,1,57,137,72,2516.5341785420023,,,,,,,,,,,,,,,,top,,,,,,,,2516.5200603749836,2517.2844956670015,2517.2846624589874,2522.5343332089833,2522.540245041979,2523.784315875004,2523.785805499996,2524.5012725839915,2524.5029775000003,2525.9020224169944,allred,FinalRedContrast,FinalGreenContrast,2525.9027847090038,2527.3350702089956,3,042126sb,001,2026-04-21_14h14.00.801,priming,,2026.1.3,59.93088470071801,2026-04-21 14h14.01.131467 -0700,
GR_Congruent_RedCue_RedProbe_Top,GreenGaborBoth.png,RedGaborBoth.png,GreenGaborBoth.png,RedGaborDisappearTop.png,Red.mp3,red,top,138,58,1,,,,1,58,138,0,2527.3507738749904,,,,,,,,,,,,,,,,top,,,,,,,,2527.3351752919843,2528.384472167003,2528.384635249997,2533.634268666996,2533.6407648749882,2534.8843008749827,2534.8856777919864,2536.6181264999905,2536.619525166985,2537.5019263339927,mostlyred,FinalRedContrast,FinalGreenContrast,2537.502897416998,2539.1518915839843,3,042126sb,001,2026-04-21_14h14.00.801,priming,,2026.1.3,59.93088470071801,2026-04-21 14h14.01.131467 -0700,
