label,LstartingStim,RstartingStim,LvisualStim,RvisualStim,audioCue,visualCue,probe_loc,thisN,thisTrialN,thisRepN,staircase.thisTrialN,staircase.stepSize,staircase.intensity,trials.thisRepN,trials.thisTrialN,trials.thisN,trials.thisIndex,thisRow.t,notes,piloting,stim offset,continue_resp.keys,continue_resp.rt,continue_resp.duration,fixation.started,fixation.stopped,greenContrast,redContrast,adjusted_contrast.started,adjusted_contrast.stopped,staircase_response.started,staircase_response.stopped,stair_response,probe_response,staircase.response,prevTrial,isRed,isReversal,cumReversal,contrastArray,contrastAverage,start_trial.started,start_trial.stopped,cue.started,cue.stopped,probe.started,probe.stopped,probe_response.started,probe_response.stopped,subjective_response.started,subjective_response.stopped,subj_response,RedContrast,GreenContrast,vividness_response.started,vividness_response.stopped,vivid_response,participant,session,date,expName,expVersion,psychopyVersion,frameRate,expStart,
,,,,,,,,,,,,,,,,,,,,False,0.389,,,,,,,,,,,,,,,,,,,,,,,,,,,,,,,,,,,,,042226hb,001,2026-04-22_10h17.15.378,priming,,2026.1.3,59.95554294745488,2026-04-22 10h17.15.720211 -0700,
,,,,,,,,,,,,,,,,,,,,,,space,27.67072970798472,None,,,,,,,,,,,,,,,,,,,,,,,,,,,,,,,,,,042226hb,001,2026-04-22_10h17.15.378,priming,,2026.1.3,59.95554294745488,2026-04-22 10h17.15.720211 -0700,
,,,,,,,,,,,0,0.2,0.5,,,,,48.095793791057076,,,,,,,48.079977333021816,49.079280583013315,0.5,0.5,49.085400416050106,50.829327833023854,50.8310633750516,56.01473237504251,allgreen,green,0,1000,0,0,0,[],0,,,,,,,,,,,,,,,,,042226hb,001,2026-04-22_10h17.15.378,priming,,2026.1.3,59.95554294745488,2026-04-22 10h17.15.720211 -0700,
,,,,,,,,,,,1,0.1,0.7,,,,,56.02930820803158,,,,,,,56.01500670803944,57.01261687499937,0.30000000000000004,0.7,57.017586791014764,58.76261775003513,58.76410616602516,60.913266083050985,mostlyred,red,1,0,1,1,1,[],0,,,,,,,,,,,,,,,,,042226hb,001,2026-04-22_10h17.15.378,priming,,2026.1.3,59.95554294745488,2026-04-22 10h17.15.720211 -0700,
,,,,,,,,,,,2,0.1,0.6,,,,,60.92920070805121,,,,,,,60.913521166017745,61.912556250055786,0.4,0.6,61.91622937505599,63.66273808304686,63.66459370800294,65.22996895801043,mostlygreen,green,0,1,0,1,2,[],0,,,,,,,,,,,,,,,,,042226hb,001,2026-04-22_10h17.15.378,priming,,2026.1.3,59.95554294745488,2026-04-22 10h17.15.720211 -0700,
,,,,,,,,,,,3,0.05,0.7,,,,,65.24574675003532,,,,,,,65.2302184580476,66.22926370805362,0.30000000000000004,0.7,66.23285100003704,67.97924908302957,67.98115204100031,69.96327575005125,mostlyred,red,1,0,1,1,3,[],0,,,,,,,,,,,,,,,,,042226hb,001,2026-04-22_10h17.15.378,priming,,2026.1.3,59.95554294745488,2026-04-22 10h17.15.720211 -0700,
,,,,,,,,,,,4,0.05,0.6499999999999999,,,,,69.97922000003746,,,,,,,69.96352295804536,70.96262679103529,0.3500000000000001,0.6499999999999999,70.96621937502641,72.71274004102452,72.71433516603429,73.63020370801678,mostlyred,red,1,1,1,0,3,[],0,,,,,,,,,,,,,,,,,042226hb,001,2026-04-22_10h17.15.378,priming,,2026.1.3,59.95554294745488,2026-04-22 10h17.15.720211 -0700,
,,,,,,,,,,,5,0.05,0.5999999999999999,,,,,73.64600004104432,,,,,,,73.63045799999963,74.62943000002997,0.40000000000000013,0.5999999999999999,74.63297708303435,76.37936054100282,76.38064225000562,77.84680845803814,mostlygreen,green,0,1,0,1,4,[],0,,,,,,,,,,,,,,,,,042226hb,001,2026-04-22_10h17.15.378,priming,,2026.1.3,59.95554294745488,2026-04-22 10h17.15.720211 -0700,
,,,,,,,,,,,6,0.025,0.6499999999999999,,,,,77.86260620801477,,,,,,,77.84706112503773,78.84597887500422,0.3500000000000001,0.6499999999999999,78.84951195801841,80.59601470804773,80.59740470803808,81.34673062502407,mostlyred,red,1,0,1,1,5,[],0,,,,,,,,,,,,,,,,,042226hb,001,2026-04-22_10h17.15.378,priming,,2026.1.3,59.95554294745488,2026-04-22 10h17.15.720211 -0700,
,,,,,,,,,,,7,0.025,0.6249999999999999,,,,,81.36262279102812,,,,,,,81.34697758301627,82.34603462502128,0.3750000000000001,0.6249999999999999,82.34951575001469,84.09594783303328,84.09787479101215,87.91331995802466,mostlygreen,green,0,1,0,1,6,[0.6249999999999999],0.6249999999999999,,,,,,,,,,,,,,,,,042226hb,001,2026-04-22_10h17.15.378,priming,,2026.1.3,59.95554294745488,2026-04-22 10h17.15.720211 -0700,
,,,,,,,,,,,8,0.025,0.6499999999999999,,,,,87.9293339580181,,,,,,,87.91357150004478,88.91263891605195,0.3500000000000001,0.6499999999999999,88.91623229102697,90.66277366603026,90.6648835830274,91.2966965000378,mostlygreen,green,0,0,0,0,6,[0.6249999999999999],0.6249999999999999,,,,,,,,,,,,,,,,,042226hb,001,2026-04-22_10h17.15.378,priming,,2026.1.3,59.95554294745488,2026-04-22 10h17.15.720211 -0700,
,,,,,,,,,,,9,0.025,0.6749999999999999,,,,,91.31265729101142,,,,,,,91.29696004104335,92.29603483300889,0.32500000000000007,0.6749999999999999,92.29956487502204,94.04600250005024,94.04767791600898,95.04669595800806,mostlygreen,green,0,0,0,0,6,[0.6249999999999999],0.6249999999999999,,,,,,,,,,,,,,,,,042226hb,001,2026-04-22_10h17.15.378,priming,,2026.1.3,59.95554294745488,2026-04-22 10h17.15.720211 -0700,
,,,,,,,,,,,10,0.025,0.7,,,,,95.06255349999992,,,,,,,95.04696004104335,96.04606104100822,0.30000000000000004,0.7,96.04960333305644,97.79608487500809,97.79784783301875,100.59681945800548,allred,red,1,0,1,1,7,"[0.6249999999999999, 0.7]",0.6624999999999999,,,,,,,,,,,,,,,,,042226hb,001,2026-04-22_10h17.15.378,priming,,2026.1.3,59.95554294745488,2026-04-22 10h17.15.720211 -0700,
,,,,,,,,,,,11,0.025,0.6749999999999999,,,,,100.61277820804389,,,,,,,100.59707745804917,101.59606995800277,0.32500000000000007,0.6749999999999999,101.59966658300254,103.34620912501123,103.34777849999955,103.99687000003178,mostlyred,red,1,1,1,0,7,"[0.6249999999999999, 0.7]",0.6624999999999999,,,,,,,,,,,,,,,,,042226hb,001,2026-04-22_10h17.15.378,priming,,2026.1.3,59.95554294745488,2026-04-22 10h17.15.720211 -0700,
,,,,,,,,,,,12,0.025,0.6499999999999999,,,,,104.01276575005613,,,,,,,103.9971184580354,104.99618012504652,0.3500000000000001,0.6499999999999999,104.99970587500138,106.7461424160283,106.74806175002595,107.4801388750202,mostlygreen,green,0,1,0,1,8,"[0.6249999999999999, 0.7, 0.6499999999999999]",0.6583333333333332,,,,,,,,,,,,,,,,,042226hb,001,2026-04-22_10h17.15.378,priming,,2026.1.3,59.95554294745488,2026-04-22 10h17.15.720211 -0700,
,,,,,,,,,,,13,0.025,0.6749999999999999,,,,,107.49600970803294,,,,,,,107.4803908750182,108.47954158304492,0.32500000000000007,0.6749999999999999,108.48308595805429,110.22951720800484,110.23087037500227,111.89692025003023,mostlyred,red,1,0,1,1,9,"[0.6249999999999999, 0.7, 0.6499999999999999, 0.6749999999999999]",0.6624999999999999,,,,,,,,,,,,,,,,,042226hb,001,2026-04-22_10h17.15.378,priming,,2026.1.3,59.95554294745488,2026-04-22 10h17.15.720211 -0700,
,,,,,,,,,,,14,0.025,0.6499999999999999,,,,,111.9127969580004,,,,,,,111.89723816601327,112.89608720800607,0.3500000000000001,0.6499999999999999,112.89959541603457,114.64630791603122,114.64770604105433,115.51362666604109,mostlyred,red,1,1,1,0,9,"[0.6249999999999999, 0.7, 0.6499999999999999, 0.6749999999999999]",0.6624999999999999,,,,,,,,,,,,,,,,,042226hb,001,2026-04-22_10h17.15.378,priming,,2026.1.3,59.95554294745488,2026-04-22 10h17.15.720211 -0700,
,,,,,,,,,,,15,0.025,0.6249999999999999,,,,,115.52945054101292,,,,,,,115.51392666605534,116.51292858301895,0.3750000000000001,0.6249999999999999,116.51645391603233,118.26295083301375,118.26453583303373,120.6139983330504,mostlyred,red,1,1,1,0,9,"[0.6249999999999999, 0.7, 0.6499999999999999, 0.6749999999999999]",0.6624999999999999,,,,,,,,,,,,,,,,,042226hb,001,2026-04-22_10h17.15.378,priming,,2026.1.3,59.95554294745488,2026-04-22 10h17.15.720211 -0700,
,,,,,,,,,,,16,0.025,0.5999999999999999,,,,,120.62951520801289,,,,,,,120.6142481660354,121.61287945799995,0.40000000000000013,0.5999999999999999,121.61634412501007,123.36289862502599,123.36413983302191,124.01359704101924,mostlygreen,green,0,1,0,1,10,"[0.6249999999999999, 0.7, 0.6499999999999999, 0.6749999999999999, 0.5999999999999999]",0.6499999999999998,,,,,,,,,,,,,,,,,042226hb,001,2026-04-22_10h17.15.378,priming,,2026.1.3,59.95554294745488,2026-04-22 10h17.15.720211 -0700,
,,,,,,,,,,,17,0.025,0.6249999999999999,,,,,124.02944187505636,,,,,,,124.01384858303936,125.01281041605398,0.3750000000000001,0.6249999999999999,125.01626370800659,126.76293733302737,126.76472045801347,129.1469762500492,mostlyred,red,1,0,1,1,11,"[0.6249999999999999, 0.7, 0.6499999999999999, 0.6749999999999999, 0.5999999999999999, 0.6249999999999999]",0.6458333333333331,,,,,,,,,,,,,,,,,042226hb,001,2026-04-22_10h17.15.378,priming,,2026.1.3,59.95554294745488,2026-04-22 10h17.15.720211 -0700,
,,,,,,,,,,,18,0.025,0.5999999999999999,,,,,129.16295187501237,,,,,,,129.14723154105013,130.1462383750477,0.40000000000000013,0.5999999999999999,130.14975033304654,131.89632129104575,131.89809950004565,133.21375266602263,mostlygreen,green,0,1,0,1,12,"[0.6249999999999999, 0.7, 0.6499999999999999, 0.6749999999999999, 0.5999999999999999, 0.6249999999999999, 0.5999999999999999]",0.6392857142857141,,,,,,,,,,,,,,,,,042226hb,001,2026-04-22_10h17.15.378,priming,,2026.1.3,59.95554294745488,2026-04-22 10h17.15.720211 -0700,
,,,,,,,,,,,19,0.025,0.6249999999999999,,,,,133.22964666603366,,,,,,,133.21403595805168,134.2129429160268,0.3750000000000001,0.6249999999999999,134.2164628750179,135.9630040830234,135.96466412500013,136.54712450003717,mostlygreen,green,0,0,0,0,12,"[0.6249999999999999, 0.7, 0.6499999999999999, 0.6749999999999999, 0.5999999999999999, 0.6249999999999999, 0.5999999999999999]",0.6392857142857141,,,,,,,,,,,,,,,,,042226hb,001,2026-04-22_10h17.15.378,priming,,2026.1.3,59.95554294745488,2026-04-22 10h17.15.720211 -0700,
,,,,,,,,,,,20,0.025,0.6499999999999999,,,,,136.56288145802682,,,,,,,136.54737525002565,137.5462832080084,0.3500000000000001,0.6499999999999999,137.54977466602577,139.29626812500646,139.2981964580249,141.19706483301707,mostlygreen,green,0,0,0,0,12,"[0.6249999999999999, 0.7, 0.6499999999999999, 0.6749999999999999, 0.5999999999999999, 0.6249999999999999, 0.5999999999999999]",0.6392857142857141,,,,,,,,,,,,,,,,,042226hb,001,2026-04-22_10h17.15.378,priming,,2026.1.3,59.95554294745488,2026-04-22 10h17.15.720211 -0700,
,,,,,,,,,,,21,0.025,0.6749999999999999,,,,,141.21293616603361,,,,,,,141.19731891603442,142.1962090000161,0.32500000000000007,0.6749999999999999,142.19978933304083,143.9462343750056,143.9481638330035,144.58039179100888,mostlygreen,green,0,0,0,0,12,"[0.6249999999999999, 0.7, 0.6499999999999999, 0.6749999999999999, 0.5999999999999999, 0.6249999999999999, 0.5999999999999999]",0.6392857142857141,,,,,,,,,,,,,,,,,042226hb,001,2026-04-22_10h17.15.378,priming,,2026.1.3,59.95554294745488,2026-04-22 10h17.15.720211 -0700,
,,,,,,,,,,,22,0.025,0.7,,,,,144.5962443750468,,,,,,,144.58063987502828,145.57957383303437,0.30000000000000004,0.7,145.58315300004324,147.32963329105405,147.33145787502872,147.84701020800276,mostlygreen,green,0,0,0,0,12,"[0.6249999999999999, 0.7, 0.6499999999999999, 0.6749999999999999, 0.5999999999999999, 0.6249999999999999, 0.5999999999999999]",0.6392857142857141,,,,,,,,,,,,,,,,,042226hb,001,2026-04-22_10h17.15.378,priming,,2026.1.3,59.95554294745488,2026-04-22 10h17.15.720211 -0700,
,,,,,,,,,,,23,0.025,0.725,,,,,147.86292708304245,,,,,,,147.84725945803802,148.84628616605187,0.275,0.725,148.84980000002543,150.59629950003,150.59777100000065,151.2304380410351,mostlygreen,green,0,0,0,0,12,"[0.6249999999999999, 0.7, 0.6499999999999999, 0.6749999999999999, 0.5999999999999999, 0.6249999999999999, 0.5999999999999999]",0.6392857142857141,,,,,,,,,,,,,,,,,042226hb,001,2026-04-22_10h17.15.378,priming,,2026.1.3,59.95554294745488,2026-04-22 10h17.15.720211 -0700,
,,,,,,,,,,,24,0.025,0.75,,,,,151.2463015000103,,,,,,,151.23069208301604,152.22962587501388,0.25,0.75,152.23312029102817,153.97963058302412,153.98121158301365,154.73034720803844,mostlyred,red,1,0,1,1,13,"[0.6249999999999999, 0.7, 0.6499999999999999, 0.6749999999999999, 0.5999999999999999, 0.6249999999999999, 0.5999999999999999, 0.75]",0.6531249999999998,,,,,,,,,,,,,,,,,042226hb,001,2026-04-22_10h17.15.378,priming,,2026.1.3,59.95554294745488,2026-04-22 10h17.15.720211 -0700,
,,,,,,,,,,,25,0.025,0.725,,,,,154.7461486250395,,,,,,,154.7305981250247,155.7297727080295,0.275,0.725,155.7333097080118,157.47978762502316,157.48141504102387,158.1138113750494,mostlygreen,green,0,1,0,1,14,"[0.6249999999999999, 0.7, 0.6499999999999999, 0.6749999999999999, 0.5999999999999999, 0.6249999999999999, 0.5999999999999999, 0.75, 0.725]",0.661111111111111,,,,,,,,,,,,,,,,,042226hb,001,2026-04-22_10h17.15.378,priming,,2026.1.3,59.95554294745488,2026-04-22 10h17.15.720211 -0700,
,,,,,,,,,,,26,0.025,0.75,,,,,158.12973066605628,,,,,,,158.11406633304432,159.1130854160292,0.25,0.75,159.11657245800598,160.86300900002243,160.86479579104343,162.1139514160459,mostlyred,red,1,0,1,1,15,"[0.6249999999999999, 0.7, 0.6499999999999999, 0.6749999999999999, 0.5999999999999999, 0.6249999999999999, 0.5999999999999999, 0.75, 0.725, 0.75]",0.6699999999999998,,,,,,,,,,,,,,,,,042226hb,001,2026-04-22_10h17.15.378,priming,,2026.1.3,59.95554294745488,2026-04-22 10h17.15.720211 -0700,
,,,,,,,,,,,27,0.025,0.725,,,,,162.12970150000183,,,,,,,162.11420554103097,163.11312762502348,0.275,0.725,163.1166390000144,164.86303775000852,164.86477625003317,166.96383733302355,mostlygreen,green,0,1,0,1,16,"[0.6249999999999999, 0.7, 0.6499999999999999, 0.6749999999999999, 0.5999999999999999, 0.6249999999999999, 0.5999999999999999, 0.75, 0.725, 0.75, 0.725]",0.6749999999999998,,,,,,,,,,,,,,,,,042226hb,001,2026-04-22_10h17.15.378,priming,,2026.1.3,59.95554294745488,2026-04-22 10h17.15.720211 -0700,
,,,,,,,,,,,28,0.025,0.75,,,,,166.9796730830567,,,,,,,166.96416195802158,167.9631245410419,0.25,0.75,167.9666892500245,169.71312937501352,169.7148730410263,172.34725087502738,allred,red,1,0,1,1,17,"[0.6249999999999999, 0.7, 0.6499999999999999, 0.6749999999999999, 0.5999999999999999, 0.6249999999999999, 0.5999999999999999, 0.75, 0.725, 0.75, 0.725, 0.75]",0.6812499999999998,,,,,,,,,,,,,,,,,042226hb,001,2026-04-22_10h17.15.378,priming,,2026.1.3,59.95554294745488,2026-04-22 10h17.15.720211 -0700,
,,,,,,,,,,,29,0.025,0.725,,,,,172.36301691603148,,,,,,,172.34751845803112,173.34636129101273,0.275,0.725,173.34990312502487,175.09652087505674,175.09778770804405,176.04747704102192,mostlyred,red,1,1,1,0,17,"[0.6249999999999999, 0.7, 0.6499999999999999, 0.6749999999999999, 0.5999999999999999, 0.6249999999999999, 0.5999999999999999, 0.75, 0.725, 0.75, 0.725, 0.75]",0.6812499999999998,,,,,,,,,,,,,,,,,042226hb,001,2026-04-22_10h17.15.378,priming,,2026.1.3,59.95554294745488,2026-04-22 10h17.15.720211 -0700,
,,,,,,,,,,,30,0.025,0.7,,,,,176.0632221660344,,,,,,,176.04780920804478,177.04639091604622,0.30000000000000004,0.7,177.050033208041,178.7964663330349,178.79797020804835,179.7472899160348,mostlygreen,green,0,1,0,1,18,"[0.6249999999999999, 0.7, 0.6499999999999999, 0.6749999999999999, 0.5999999999999999, 0.6249999999999999, 0.5999999999999999, 0.75, 0.725, 0.75, 0.725, 0.75, 0.7]",0.6826923076923074,,,,,,,,,,,,,,,,,042226hb,001,2026-04-22_10h17.15.378,priming,,2026.1.3,59.95554294745488,2026-04-22 10h17.15.720211 -0700,
,,,,,,,,,,,31,0.025,0.725,,,,,179.7630462910165,,,,,,,179.74762791604735,180.74645204102853,0.275,0.725,180.75003854103852,182.49634750001132,182.49835470801918,184.01381858304376,mostlygreen,green,0,0,0,0,18,"[0.6249999999999999, 0.7, 0.6499999999999999, 0.6749999999999999, 0.5999999999999999, 0.6249999999999999, 0.5999999999999999, 0.75, 0.725, 0.75, 0.725, 0.75, 0.7]",0.6826923076923074,,,,,,,,,,,,,,,,,042226hb,001,2026-04-22_10h17.15.378,priming,,2026.1.3,59.95554294745488,2026-04-22 10h17.15.720211 -0700,
,,,,,,,,,,,32,0.025,0.75,,,,,184.02972550003324,,,,,,,184.01407312502852,185.0131990830414,0.25,0.75,185.01684350002324,186.7632222500397,186.76500625000335,188.49724050000077,mostlyred,red,1,0,1,1,19,"[0.6249999999999999, 0.7, 0.6499999999999999, 0.6749999999999999, 0.5999999999999999, 0.6249999999999999, 0.5999999999999999, 0.75, 0.725, 0.75, 0.725, 0.75, 0.7, 0.75]",0.6874999999999998,,,,,,,,,,,,,,,,,042226hb,001,2026-04-22_10h17.15.378,priming,,2026.1.3,59.95554294745488,2026-04-22 10h17.15.720211 -0700,
,,,,,,,,,,,33,0.025,0.725,,,,,188.51311416603858,,,,,,,188.4974989160546,189.4965702080517,0.275,0.725,189.50015833304496,191.24663716601208,191.2483177910326,192.0306386250304,mostlygreen,green,0,1,0,1,20,"[0.6249999999999999, 0.7, 0.6499999999999999, 0.6749999999999999, 0.5999999999999999, 0.6249999999999999, 0.5999999999999999, 0.75, 0.725, 0.75, 0.725, 0.75, 0.7, 0.75, 0.725]",0.6899999999999997,,,,,,,,,,,,,,,,,042226hb,001,2026-04-22_10h17.15.378,priming,,2026.1.3,59.95554294745488,2026-04-22 10h17.15.720211 -0700,
,,,,,,,,,,,34,0.025,0.75,,,,,192.04653445800068,,,,,,,192.03094495803816,193.02990887500346,0.25,0.75,193.03339779103408,194.77989920804976,194.7815370830358,196.44725879101316,mostlyred,red,1,0,1,1,21,"[0.7, 0.6499999999999999, 0.6749999999999999, 0.5999999999999999, 0.6249999999999999, 0.5999999999999999, 0.75, 0.725, 0.75, 0.725, 0.75, 0.7, 0.75, 0.725, 0.75]",0.6983333333333331,,,,,,,,,,,,,,,,,042226hb,001,2026-04-22_10h17.15.378,priming,,2026.1.3,59.95554294745488,2026-04-22 10h17.15.720211 -0700,
,,,,,,,,,,,35,0.025,0.725,,,,,196.4631713750423,,,,,,,196.44751629105303,197.44672841602005,0.275,0.725,197.45027991605457,199.19667270802893,199.19839154102374,200.79722200002288,mostlygreen,green,0,1,0,1,22,"[0.6499999999999999, 0.6749999999999999, 0.5999999999999999, 0.6249999999999999, 0.5999999999999999, 0.75, 0.725, 0.75, 0.725, 0.75, 0.7, 0.75, 0.725, 0.75, 0.725]",0.6999999999999998,,,,,,,,,,,,,,,,,042226hb,001,2026-04-22_10h17.15.378,priming,,2026.1.3,59.95554294745488,2026-04-22 10h17.15.720211 -0700,
,,,,,,,,,,,36,0.025,0.75,,,,,200.8130985830212,,,,,,,200.79747441603104,201.7965410000179,0.25,0.75,201.80012712505413,203.54670200002147,203.54855645803036,204.6639527080115,mostlygreen,green,0,0,0,0,22,"[0.6499999999999999, 0.6749999999999999, 0.5999999999999999, 0.6249999999999999, 0.5999999999999999, 0.75, 0.725, 0.75, 0.725, 0.75, 0.7, 0.75, 0.725, 0.75, 0.725]",0.6999999999999998,,,,,,,,,,,,,,,,,042226hb,001,2026-04-22_10h17.15.378,priming,,2026.1.3,59.95554294745488,2026-04-22 10h17.15.720211 -0700,
,,,,,,,,,,,37,0.025,0.775,,,,,204.67974254104774,,,,,,,204.66420450003352,205.66326050000498,0.22499999999999998,0.775,205.6667868750519,207.41333129105624,207.41485541604925,208.19731837505242,mostlygreen,green,0,0,0,0,22,"[0.6499999999999999, 0.6749999999999999, 0.5999999999999999, 0.6249999999999999, 0.5999999999999999, 0.75, 0.725, 0.75, 0.725, 0.75, 0.7, 0.75, 0.725, 0.75, 0.725]",0.6999999999999998,,,,,,,,,,,,,,,,,042226hb,001,2026-04-22_10h17.15.378,priming,,2026.1.3,59.95554294745488,2026-04-22 10h17.15.720211 -0700,
,,,,,,,,,,,38,0.025,0.8,,,,,208.21313445805572,,,,,,,208.19765416602604,209.19646375003504,0.19999999999999996,0.8,209.19998941605445,210.94657141604694,210.94801708305022,212.18103462504223,mostlyred,red,1,0,1,1,23,"[0.6749999999999999, 0.5999999999999999, 0.6249999999999999, 0.5999999999999999, 0.75, 0.725, 0.75, 0.725, 0.75, 0.7, 0.75, 0.725, 0.75, 0.725, 0.8]",0.7100000000000001,,,,,,,,,,,,,,,,,042226hb,001,2026-04-22_10h17.15.378,priming,,2026.1.3,59.95554294745488,2026-04-22 10h17.15.720211 -0700,
,,,,,,,,,,,39,0.025,0.775,,,,,212.19651920802426,,,,,,,212.18130341602955,213.17992050002795,0.22499999999999998,0.775,213.18340137501946,214.93004345800728,214.93235520803137,215.78078558301786,mostlygreen,green,0,1,0,1,24,"[0.5999999999999999, 0.6249999999999999, 0.5999999999999999, 0.75, 0.725, 0.75, 0.725, 0.75, 0.7, 0.75, 0.725, 0.75, 0.725, 0.8, 0.775]",0.7166666666666667,,,,,,,,,,,,,,,,,042226hb,001,2026-04-22_10h17.15.378,priming,,2026.1.3,59.95554294745488,2026-04-22 10h17.15.720211 -0700,
,,,,,,,,,,,,,,,,,,,,,,space,67.14111420803238,None,,,,,,,,,,,,,,,,,,,,,,,,,,,,,,,,,,042226hb,001,2026-04-22_10h17.15.378,priming,,2026.1.3,59.95554294745488,2026-04-22 10h17.15.720211 -0700,
GR_Incongruent_RedCue_GreenProbe_Bottom,GreenGaborBoth.png,RedGaborBoth.png,GreenGaborDisappearBottom.png,RedGaborBoth.png,Red.mp3,red,bottom,0,0,0,,,,0,0,0,21,283.0136260410072,,,,,,,,,,,,,,,,bottom,,,,,,,,282.9938770410372,285.3972420830396,285.3974036660511,290.64688550005667,290.6559041250148,291.8970311660087,291.8985091250506,295.16405104100704,295.1656691660173,297.4644553750404,allred,FinalRedContrast,FinalGreenContrast,297.46501895802794,301.16447087505367,5,042226hb,001,2026-04-22_10h17.15.378,priming,,2026.1.3,59.95554294745488,2026-04-22 10h17.15.720211 -0700,
GR_Congruent_RedCue_RedProbe_Top,GreenGaborBoth.png,RedGaborBoth.png,GreenGaborBoth.png,RedGaborDisappearTop.png,Red.mp3,red,top,1,1,0,,,,0,1,1,24,301.1801298330538,,,,,,,,,,,,,,,,top,,,,,,,,301.1646027910174,352.4308503330103,352.4310168750235,357.68061154102907,357.6901937080547,358.9305296250386,358.9322377500357,361.26427758304635,361.26570091600297,362.96471712505445,allred,FinalRedContrast,FinalGreenContrast,362.965779791004,364.648261208029,4,042226hb,001,2026-04-22_10h17.15.378,priming,,2026.1.3,59.95554294745488,2026-04-22 10h17.15.720211 -0700,
GG_non_riv_catch_RedCue_GreenProbe_Bottom,GreenGaborBoth.png,Blank.png,GreenGaborDisappearBottom.png,Blank.png,Red.mp3,red,bottom,2,2,0,,,,0,2,2,77,364.663990541012,,,,,,,,,,,,,,,,bottom,,,,,,,,364.64837687503314,374.71436308301054,374.7145301250275,379.96405400004005,379.97251412505284,381.2140217910055,381.2152509580483,382.164499791048,382.1656291250256,384.7814701250172,allgreen,FinalRedContrast,FinalGreenContrast,384.78256120800506,387.1819162500324,5,042226hb,001,2026-04-22_10h17.15.378,priming,,2026.1.3,59.95554294745488,2026-04-22 10h17.15.720211 -0700,
GR_Incongruent_RedCue_GreenProbe_Top,GreenGaborBoth.png,RedGaborBoth.png,GreenGaborDisappearTop.png,RedGaborBoth.png,Red.mp3,red,top,3,3,0,,,,0,3,3,36,387.1973442910239,,,,,,,,,,,,,,,,bottom,,,,,,,,387.18202966602985,394.3644834580482,394.3646479580202,399.61410987505224,399.62271900003543,400.86411237501306,400.8657325000386,403.6145315830363,403.6161686250125,406.41487983305706,mostlyred,FinalRedContrast,FinalGreenContrast,406.4160477500409,409.28164166602073,4,042226hb,001,2026-04-22_10h17.15.378,priming,,2026.1.3,59.95554294745488,2026-04-22 10h17.15.720211 -0700,
GR_Congruent_GreenCue_GreenProbe_Top,GreenGaborBoth.png,RedGaborBoth.png,GreenGaborDisappearTop.png,RedGaborBoth.png,Green.mp3,green,top,4,4,0,,,,0,4,4,66,409.2973862080253,,,,,,,,,,,,,,,,top,,,,,,,,409.2842003330006,419.9645398330176,419.964706208033,425.214543375012,425.2224006250035,426.4642150410218,426.46581175003666,427.9647150830133,427.9661625410081,430.4151274160249,mostlyred,FinalRedContrast,FinalGreenContrast,430.41579595801886,434.86514070804697,4,042226hb,001,2026-04-22_10h17.15.378,priming,,2026.1.3,59.95554294745488,2026-04-22 10h17.15.720211 -0700,
GR_Congruent_RedCue_RedProbe_Bottom,GreenGaborBoth.png,RedGaborBoth.png,GreenGaborBoth.png,RedGaborDisappearBottom.png,Red.mp3,red,bottom,5,5,0,,,,0,5,5,41,434.88085470802616,,,,,,,,,,,,,,,,bottom,,,,,,,,434.86689325002953,445.23119954101276,445.23137004103046,450.4809340830543,450.4889068750199,451.7309135830146,451.7324862080277,453.2313940000022,453.23298595804954,455.9319620410097,mostlyred,FinalRedContrast,FinalGreenContrast,455.93300645804266,458.2486108750454,4,042226hb,001,2026-04-22_10h17.15.378,priming,,2026.1.3,59.95554294745488,2026-04-22 10h17.15.720211 -0700,
GR_Congruent_RedCue_RedProbe_Top,GreenGaborBoth.png,RedGaborBoth.png,GreenGaborBoth.png,RedGaborDisappearTop.png,Red.mp3,red,top,6,6,0,,,,0,6,6,64,458.26436875003856,,,,,,,,,,,,,,,,top,,,,,,,,458.2487283330411,462.33137450000504,462.33154483302496,467.5810065000551,467.58854762505507,468.83112158300355,468.8323190830415,471.51480037503643,471.516381708032,472.59856258303626,allred,FinalRedContrast,FinalGreenContrast,472.5997342080227,475.51524954102933,4,042226hb,001,2026-04-22_10h17.15.378,priming,,2026.1.3,59.95554294745488,2026-04-22 10h17.15.720211 -0700,
GR_Incongruent_GreenCue_RedProbe_Bottom,GreenGaborBoth.png,RedGaborBoth.png,GreenGaborBoth.png,RedGaborDisappearBottom.png,Green.mp3,green,bottom,7,7,0,,,,0,7,7,39,475.531029875041,,,,,,,,,,,,,,,,bottom,,,,,,,,475.51724066602765,482.81478770804824,482.8149515000405,488.0644967080443,488.0710666250088,489.31460195803083,489.31641583301825,492.0316665410064,492.03304237505654,494.1821039580391,mostlyred,FinalRedContrast,FinalGreenContrast,494.1825853330083,495.84872462501517,4,042226hb,001,2026-04-22_10h17.15.378,priming,,2026.1.3,59.95554294745488,2026-04-22 10h17.15.720211 -0700,
GR_Congruent_RedCue_RedProbe_Bottom,GreenGaborBoth.png,RedGaborBoth.png,GreenGaborBoth.png,RedGaborDisappearBottom.png,Red.mp3,red,bottom,8,8,0,,,,0,8,8,1,495.8645015830407,,,,,,,,,,,,,,,,bottom,,,,,,,,495.85044195805676,498.3481442500488,498.3483080410515,503.59788520802977,503.60444395802915,504.8478722500149,504.8494785410003,506.44819825002924,506.44977316603763,507.5487214580062,mostlyred,FinalRedContrast,FinalGreenContrast,507.5498583330191,510.01541695802007,4,042226hb,001,2026-04-22_10h17.15.378,priming,,2026.1.3,59.95554294745488,2026-04-22 10h17.15.720211 -0700,
GR_Congruent_GreenCue_GreenProbe_Bottom,GreenGaborBoth.png,RedGaborBoth.png,GreenGaborDisappearBottom.png,RedGaborBoth.png,Green.mp3,green,bottom,9,9,0,,,,0,9,9,27,510.03112900000997,,,,,,,,,,,,,,,,bottom,,,,,,,,510.01753183302935,519.0816861660569,519.0818525000359,524.3312563750078,524.3389610410086,525.5813857910107,525.5833023750456,527.5317440830404,527.5332124580164,528.6488860830432,mostlyred,FinalRedContrast,FinalGreenContrast,528.6494431660394,530.7658720830223,3,042226hb,001,2026-04-22_10h17.15.378,priming,,2026.1.3,59.95554294745488,2026-04-22 10h17.15.720211 -0700,
GR_Incongruent_GreenCue_RedProbe_Bottom,GreenGaborBoth.png,RedGaborBoth.png,GreenGaborBoth.png,RedGaborDisappearBottom.png,Green.mp3,green,bottom,10,10,0,,,,0,10,10,71,530.7812612910056,,,,,,,,,,,,,,,,bottom,,,,,,,,530.7659837910323,532.3816697080038,532.3818318750127,537.6313575410168,537.6397178330226,538.8813433750183,538.8828449580469,542.1983823330374,542.1997594160493,549.2323412910337,mostlyred,FinalRedContrast,FinalGreenContrast,549.2330435410258,551.9823570000008,3,042226hb,001,2026-04-22_10h17.15.378,priming,,2026.1.3,59.95554294745488,2026-04-22 10h17.15.720211 -0700,
GR_Incongruent_RedCue_GreenProbe_Bottom,GreenGaborBoth.png,RedGaborBoth.png,GreenGaborDisappearBottom.png,RedGaborBoth.png,Red.mp3,red,bottom,11,11,0,,,,0,11,11,53,551.9980810000561,,,,,,,,,,,,,,,,bottom,,,,,,,,551.9840039160335,556.2817567910533,556.2819194160402,561.5314343330101,561.5390671250061,562.7814900830272,562.7826685000327,565.3489265000098,565.3496336660464,567.1823837500415,evensplit,FinalRedContrast,FinalGreenContrast,567.1826905000489,568.5656755000236,4,042226hb,001,2026-04-22_10h17.15.378,priming,,2026.1.3,59.95554294745488,2026-04-22 10h17.15.720211 -0700,
GR_Congruent_GreenCue_GreenProbe_Top,GreenGaborBoth.png,RedGaborBoth.png,GreenGaborDisappearTop.png,RedGaborBoth.png,Green.mp3,green,top,12,12,0,,,,0,12,12,34,568.5812895410345,,,,,,,,,,,,,,,,top,,,,,,,,568.5676519580302,569.9650883750292,569.9652577500092,575.2147026250022,575.2223789160489,576.4647621250479,576.4664061250514,577.4652326250216,577.4666048750514,579.4822981660254,mostlygreen,FinalRedContrast,FinalGreenContrast,579.4833139580442,581.8991470000474,4,042226hb,001,2026-04-22_10h17.15.378,priming,,2026.1.3,59.95554294745488,2026-04-22 10h17.15.720211 -0700,
GR_Congruent_GreenCue_GreenProbe_Top,GreenGaborBoth.png,RedGaborBoth.png,GreenGaborDisappearTop.png,RedGaborBoth.png,Green.mp3,green,top,13,13,0,,,,0,13,13,18,581.9148572080303,,,,,,,,,,,,,,,,top,,,,,,,,581.8992515410064,583.0818642910453,583.0820261660265,588.3315937500447,588.3382528750226,589.5816162080155,589.5831575830234,591.3491405410459,591.3497062500101,593.2657156250207,mostlygreen,FinalRedContrast,FinalGreenContrast,593.266815250041,595.2491325410083,4,042226hb,001,2026-04-22_10h17.15.378,priming,,2026.1.3,59.95554294745488,2026-04-22 10h17.15.720211 -0700,
GR_Congruent_RedCue_RedProbe_Top,GreenGaborBoth.png,RedGaborBoth.png,GreenGaborBoth.png,RedGaborDisappearTop.png,Red.mp3,red,top,14,14,0,,,,0,14,14,8,595.2648170830216,,,,,,,,,,,,,,,,top,,,,,,,,595.2507955410401,596.6818365830113,596.6820017080172,601.931532416027,601.939107791055,603.1816597910365,603.1830862080096,605.8319897080073,605.8336611660197,606.6157765410026,evensplit,FinalRedContrast,FinalGreenContrast,606.6168422910268,607.9324590830365,3,042226hb,001,2026-04-22_10h17.15.378,priming,,2026.1.3,59.95554294745488,2026-04-22 10h17.15.720211 -0700,
GR_Incongruent_RedCue_GreenProbe_Bottom,GreenGaborBoth.png,RedGaborBoth.png,GreenGaborDisappearBottom.png,RedGaborBoth.png,Red.mp3,red,bottom,15,15,0,,,,0,15,15,29,607.9480930410209,,,,,,,,,,,,,,,,bottom,,,,,,,,607.9325807910063,608.7151310410118,608.7152956660138,613.9650682500214,613.9716073330492,615.2150494160014,615.216550666024,617.048772500013,617.0504507080186,617.6826659580111,evensplit,FinalRedContrast,FinalGreenContrast,617.6833804160124,619.0325856660493,3,042226hb,001,2026-04-22_10h17.15.378,priming,,2026.1.3,59.95554294745488,2026-04-22 10h17.15.720211 -0700,
GR_Congruent_RedCue_RedProbe_Top,GreenGaborBoth.png,RedGaborBoth.png,GreenGaborBoth.png,RedGaborDisappearTop.png,Red.mp3,red,top,16,16,0,,,,0,16,16,0,619.0483558750129,,,,,,,,,,,,,,,,top,,,,,,,,619.0327154160477,620.1154056250234,620.115591083013,625.3649701250251,625.3715926660225,626.6150766659994,626.6167514580302,627.5986923330347,627.6003243330051,628.9496442500385,allred,FinalRedContrast,FinalGreenContrast,628.9499384160154,633.1492534580175,4,042226hb,001,2026-04-22_10h17.15.378,priming,,2026.1.3,59.95554294745488,2026-04-22 10h17.15.720211 -0700,
GR_Incongruent_GreenCue_RedProbe_Top,GreenGaborBoth.png,RedGaborBoth.png,GreenGaborBoth.png,RedGaborDisappearTop.png,Green.mp3,green,top,17,17,0,,,,0,17,17,70,633.1648810000042,,,,,,,,,,,,,,,,top,,,,,,,,633.15131729102,634.8320628750371,634.8322289160569,640.0817695410224,640.0882802910055,641.3316972500179,641.3330642910441,643.3322560830275,643.3337928330293,645.2660560000222,mostlyred,FinalRedContrast,FinalGreenContrast,645.2671937080449,647.8661387910252,4,042226hb,001,2026-04-22_10h17.15.378,priming,,2026.1.3,59.95554294745488,2026-04-22 10h17.15.720211 -0700,
GR_Congruent_RedCue_RedProbe_Bottom,GreenGaborBoth.png,RedGaborBoth.png,GreenGaborBoth.png,RedGaborDisappearBottom.png,Red.mp3,red,bottom,18,18,0,,,,0,18,18,33,647.8816708330414,,,,,,,,,,,,,,,,bottom,,,,,,,,647.867879166035,648.682111083006,648.6822784160031,653.93174262502,653.9393970830133,655.1818947910215,655.1831499160035,656.7822746660095,656.7830051660421,658.9993623750051,mostlyred,FinalRedContrast,FinalGreenContrast,659.0004913750454,661.4159453750472,3,042226hb,001,2026-04-22_10h17.15.378,priming,,2026.1.3,59.95554294745488,2026-04-22 10h17.15.720211 -0700,
GR_Incongruent_RedCue_GreenProbe_Top,GreenGaborBoth.png,RedGaborBoth.png,GreenGaborDisappearTop.png,RedGaborBoth.png,Red.mp3,red,top,19,19,0,,,,0,19,19,52,661.4316985830083,,,,,,,,,,,,,,,,bottom,,,,,,,,661.4160508750356,662.0654635830433,662.0656301250565,667.3151722910115,667.3227732500527,668.5652565410128,668.5670244159992,670.3489411250339,670.350220458,672.7660870000254,mostlyred,FinalRedContrast,FinalGreenContrast,672.7666370000225,674.4828111250536,3,042226hb,001,2026-04-22_10h17.15.378,priming,,2026.1.3,59.95554294745488,2026-04-22 10h17.15.720211 -0700,
GR_Congruent_GreenCue_GreenProbe_Top,GreenGaborBoth.png,RedGaborBoth.png,GreenGaborDisappearTop.png,RedGaborBoth.png,Green.mp3,green,top,20,20,0,,,,0,20,20,2,674.4985087080277,,,,,,,,,,,,,,,,top,,,,,,,,674.4847915000282,675.3656572500477,675.3658204580424,680.6153221250279,680.6219316250063,681.8653654580121,681.86693620804,684.8991284160293,684.9004620410269,689.0994260830339,mostlyred,FinalRedContrast,FinalGreenContrast,689.1006409160327,690.9828525830526,3,042226hb,001,2026-04-22_10h17.15.378,priming,,2026.1.3,59.95554294745488,2026-04-22 10h17.15.720211 -0700,
GR_Congruent_GreenCue_GreenProbe_Bottom,GreenGaborBoth.png,RedGaborBoth.png,GreenGaborDisappearBottom.png,RedGaborBoth.png,Green.mp3,green,bottom,21,21,0,,,,0,21,21,51,690.99857062503,,,,,,,,,,,,,,,,bottom,,,,,,,,690.982977125037,692.0822214159998,692.0823885410209,697.3318633750314,697.3393762910273,698.581949666026,698.5832976660458,700.8824110830319,700.8838752500014,702.8494505410199,mostlyred,FinalRedContrast,FinalGreenContrast,702.8506825000513,704.6161065000342,3,042226hb,001,2026-04-22_10h17.15.378,priming,,2026.1.3,59.95554294745488,2026-04-22 10h17.15.720211 -0700,
GR_Congruent_GreenCue_GreenProbe_Bottom,GreenGaborBoth.png,RedGaborBoth.png,GreenGaborDisappearBottom.png,RedGaborBoth.png,Green.mp3,green,bottom,22,22,0,,,,0,22,22,11,704.6319567500032,,,,,,,,,,,,,,,,bottom,,,,,,,,704.6162369160447,705.815757125034,705.8159237500513,711.0654437080375,711.0719843750121,712.3154580830014,712.3172575000208,714.8826888330514,714.8840552080073,717.8995823330479,mostlyred,FinalRedContrast,FinalGreenContrast,717.9006961250561,721.5995868330356,3,042226hb,001,2026-04-22_10h17.15.378,priming,,2026.1.3,59.95554294745488,2026-04-22 10h17.15.720211 -0700,
GR_Incongruent_RedCue_GreenProbe_Bottom,GreenGaborBoth.png,RedGaborBoth.png,GreenGaborDisappearBottom.png,RedGaborBoth.png,Red.mp3,red,bottom,23,23,0,,,,0,23,23,45,721.6153637500247,,,,,,,,,,,,,,,,bottom,,,,,,,,721.6014242500532,722.4990697080502,722.4992319580051,727.7488094580476,727.7553667500033,728.9988128750119,729.0006601250498,730.5492237910512,730.549921458005,733.1662972910563,evensplit,FinalRedContrast,FinalGreenContrast,733.167429208057,735.3162210410228,4,042226hb,001,2026-04-22_10h17.15.378,priming,,2026.1.3,59.95554294745488,2026-04-22 10h17.15.720211 -0700,
GR_Incongruent_GreenCue_RedProbe_Top,GreenGaborBoth.png,RedGaborBoth.png,GreenGaborBoth.png,RedGaborDisappearTop.png,Green.mp3,green,top,24,24,0,,,,0,24,24,6,735.3320847080322,,,,,,,,,,,,,,,,top,,,,,,,,735.3182257080334,736.4156772500137,736.41584637505,741.6656135410303,741.6732895410387,742.9155410410021,742.917174666014,743.6993490830064,743.7008393330034,745.0830841250136,mostlyred,FinalRedContrast,FinalGreenContrast,745.0841151660425,747.516415583028,4,042226hb,001,2026-04-22_10h17.15.378,priming,,2026.1.3,59.95554294745488,2026-04-22 10h17.15.720211 -0700,
GR_Congruent_GreenCue_GreenProbe_Bottom,GreenGaborBoth.png,RedGaborBoth.png,GreenGaborDisappearBottom.png,RedGaborBoth.png,Green.mp3,green,bottom,25,25,0,,,,0,25,25,67,747.5321687910473,,,,,,,,,,,,,,,,bottom,,,,,,,,747.5165317910141,749.3825620000134,749.3827307910542,754.6322435000329,754.6387663330534,755.8821882910561,755.8837346660439,756.6825671660481,756.6836588330334,760.6997685000533,mostlyred,FinalRedContrast,FinalGreenContrast,760.7008141660481,764.2496877080412,3,042226hb,001,2026-04-22_10h17.15.378,priming,,2026.1.3,59.95554294745488,2026-04-22 10h17.15.720211 -0700,
GR_Incongruent_GreenCue_RedProbe_Top,GreenGaborBoth.png,RedGaborBoth.png,GreenGaborBoth.png,RedGaborDisappearTop.png,Green.mp3,green,top,26,26,0,,,,0,26,26,14,764.2655087080202,,,,,,,,,,,,,,,,top,,,,,,,,764.2497913750121,765.1496907080291,765.1498864580062,770.3989986250526,770.4056689160061,771.6490388750099,771.6506107910536,773.4827935410431,773.4842277910211,775.3664376250235,mostlyred,FinalRedContrast,FinalGreenContrast,775.367520666041,778.8332673330442,4,042226hb,001,2026-04-22_10h17.15.378,priming,,2026.1.3,59.95554294745488,2026-04-22 10h17.15.720211 -0700,
GR_Congruent_GreenCue_GreenProbe_Bottom,GreenGaborBoth.png,RedGaborBoth.png,GreenGaborDisappearBottom.png,RedGaborBoth.png,Green.mp3,green,bottom,27,27,0,,,,0,27,27,43,778.8489523750031,,,,,,,,,,,,,,,,bottom,,,,,,,,778.8333800830296,781.0160265830345,781.0161915000062,786.2657087500556,786.273317541054,787.5158374580205,787.5173604160082,789.3994566660258,789.401043000049,791.4165286250063,allred,FinalRedContrast,FinalGreenContrast,791.4176187080448,793.1332046660245,3,042226hb,001,2026-04-22_10h17.15.378,priming,,2026.1.3,59.95554294745488,2026-04-22 10h17.15.720211 -0700,
GG_non_riv_catch_RedCue_GreenProbe_Top,GreenGaborBoth.png,Blank.png,GreenGaborDisappearTop.png,Blank.png,Red.mp3,red,top,28,28,0,,,,0,28,28,76,793.1488740410423,,,,,,,,,,,,,,,,top,,,,,,,,793.1351063750335,793.9494156250148,793.9496042910032,799.1989222080447,799.2058006660081,800.4489874580177,800.4503828330198,801.4328968750197,801.4339709160267,802.9500487910118,allgreen,FinalRedContrast,FinalGreenContrast,802.9503207910457,804.6999954160419,4,042226hb,001,2026-04-22_10h17.15.378,priming,,2026.1.3,59.95554294745488,2026-04-22 10h17.15.720211 -0700,
GR_Congruent_RedCue_RedProbe_Top,GreenGaborBoth.png,RedGaborBoth.png,GreenGaborBoth.png,RedGaborDisappearTop.png,Red.mp3,red,top,29,29,0,,,,0,29,29,48,804.7157987080282,,,,,,,,,,,,,,,,top,,,,,,,,804.7000993750407,805.4661416660529,805.4663065410568,810.71581879101,810.7223982080468,811.9658830410335,811.9675454579992,812.5662101250491,812.5673673750134,814.4999932080391,evensplit,FinalRedContrast,FinalGreenContrast,814.5010207910091,816.3834031660226,3,042226hb,001,2026-04-22_10h17.15.378,priming,,2026.1.3,59.95554294745488,2026-04-22 10h17.15.720211 -0700,
GR_Incongruent_RedCue_GreenProbe_Bottom,GreenGaborBoth.png,RedGaborBoth.png,GreenGaborDisappearBottom.png,RedGaborBoth.png,Red.mp3,red,bottom,30,30,0,,,,0,30,30,61,816.3990635000519,,,,,,,,,,,,,,,,bottom,,,,,,,,816.383508125029,817.082787375024,817.0829575000098,822.3325018330361,822.3389500000048,823.5825854160357,823.5839316250058,825.9663969160174,825.9673999580555,828.2167246250319,evensplit,FinalRedContrast,FinalGreenContrast,828.2176394580165,830.550076833053,3,042226hb,001,2026-04-22_10h17.15.378,priming,,2026.1.3,59.95554294745488,2026-04-22 10h17.15.720211 -0700,
GR_Congruent_GreenCue_GreenProbe_Top,GreenGaborBoth.png,RedGaborBoth.png,GreenGaborDisappearTop.png,RedGaborBoth.png,Green.mp3,green,top,31,31,0,,,,0,31,31,58,830.5656692910125,,,,,,,,,,,,,,,,top,,,,,,,,830.5520998330321,831.4161386660417,831.4163027080358,836.6659687080537,836.6724907080061,837.9159818330081,837.9176822500303,839.0997367910459,839.1010744580417,840.8834757500445,evensplit,FinalRedContrast,FinalGreenContrast,840.8845695830532,844.4334578330163,3,042226hb,001,2026-04-22_10h17.15.378,priming,,2026.1.3,59.95554294745488,2026-04-22 10h17.15.720211 -0700,
GR_Incongruent_GreenCue_RedProbe_Bottom,GreenGaborBoth.png,RedGaborBoth.png,GreenGaborBoth.png,RedGaborDisappearBottom.png,Green.mp3,green,bottom,32,32,0,,,,0,32,32,23,844.4492206250434,,,,,,,,,,,,,,,,bottom,,,,,,,,844.43361800001,848.532965958002,848.5331332909991,853.7826256250264,853.7902447500383,855.0326141660335,855.0344122500392,855.7499010000029,855.7508994160453,857.3668205830036,evensplit,FinalRedContrast,FinalGreenContrast,857.3672150830389,859.0335255830432,3,042226hb,001,2026-04-22_10h17.15.378,priming,,2026.1.3,59.95554294745488,2026-04-22 10h17.15.720211 -0700,
GR_Congruent_GreenCue_GreenProbe_Top,GreenGaborBoth.png,RedGaborBoth.png,GreenGaborDisappearTop.png,RedGaborBoth.png,Green.mp3,green,top,33,33,0,,,,0,33,33,10,859.0492385410471,,,,,,,,,,,,,,,,top,,,,,,,,859.033649458026,870.5745542910299,870.5747615410364,875.8327101660543,875.8391886250465,877.0827905830229,877.0844881660305,881.883188250009,881.8847858330118,886.8336102910107,mostlyred,FinalRedContrast,FinalGreenContrast,886.8347355000442,890.183581958001,4,042226hb,001,2026-04-22_10h17.15.378,priming,,2026.1.3,59.95554294745488,2026-04-22 10h17.15.720211 -0700,
GG_non_riv_catch_GreenCue_GreenProbe_Top,GreenGaborBoth.png,Blank.png,GreenGaborDisappearTop.png,Blank.png,Green.mp3,green,top,34,34,0,,,,0,34,34,78,890.1992831250536,,,,,,,,,,,,,,,,top,,,,,,,,890.1836874580476,891.2164438750478,891.2166070000385,896.4664374580025,896.4731920000049,897.7162306660321,897.717388375022,898.8166427080287,898.817715125042,901.3337634580093,allgreen,FinalRedContrast,FinalGreenContrast,901.3343447080115,903.4337535000523,3,042226hb,001,2026-04-22_10h17.15.378,priming,,2026.1.3,59.95554294745488,2026-04-22 10h17.15.720211 -0700,
GR_Congruent_RedCue_RedProbe_Bottom,GreenGaborBoth.png,RedGaborBoth.png,GreenGaborBoth.png,RedGaborDisappearBottom.png,Red.mp3,red,bottom,35,35,0,,,,0,35,35,49,903.4494805830182,,,,,,,,,,,,,,,,bottom,,,,,,,,903.4355842500227,904.4334988750052,904.4336706660106,909.6829200410284,909.6914002910489,910.9329591660062,910.9341977910371,911.9666618750198,911.9681492080563,913.9421039580484,allred,FinalRedContrast,FinalGreenContrast,913.942403166031,914.8170618330478,2,042226hb,001,2026-04-22_10h17.15.378,priming,,2026.1.3,59.95554294745488,2026-04-22 10h17.15.720211 -0700,
GR_Incongruent_RedCue_GreenProbe_Top,GreenGaborBoth.png,RedGaborBoth.png,GreenGaborDisappearTop.png,RedGaborBoth.png,Red.mp3,red,top,36,36,0,,,,0,36,36,44,914.8327998330351,,,,,,,,,,,,,,,,bottom,,,,,,,,914.8171691250172,916.6332386250142,916.6334014160093,921.8829156660358,921.8900719160447,923.1328909580479,923.1345773750218,925.3169447079999,925.3173240410397,927.2504191250191,mostlyred,FinalRedContrast,FinalGreenContrast,927.2511012080358,928.8505107910023,3,042226hb,001,2026-04-22_10h17.15.378,priming,,2026.1.3,59.95554294745488,2026-04-22 10h17.15.720211 -0700,
RR_non_riv_catch_GreenCue_RedProbe_Bottom,Blank.png,RedGaborBoth.png,Blank.png,RedGaborDisappearBottom.png,Green.mp3,green,bottom,37,37,0,,,,0,37,37,75,928.8662571660243,,,,,,,,,,,,,,,,bottom,,,,,,,,928.8525076660444,929.6666378750233,929.666800750012,934.9164220410166,934.9227587910136,936.1662615410169,936.168296250049,937.2333871660521,937.2349317910266,938.3671068330295,allred,FinalRedContrast,FinalGreenContrast,938.3682379160309,939.8671617500368,3,042226hb,001,2026-04-22_10h17.15.378,priming,,2026.1.3,59.95554294745488,2026-04-22 10h17.15.720211 -0700,
GR_Congruent_GreenCue_GreenProbe_Bottom,GreenGaborBoth.png,RedGaborBoth.png,GreenGaborDisappearBottom.png,RedGaborBoth.png,Green.mp3,green,bottom,38,38,0,,,,0,38,38,19,939.8829477910185,,,,,,,,,,,,,,,,bottom,,,,,,,,939.8672790830024,940.4832740410347,940.4834383750567,945.7329726660391,945.7406027080142,946.9829520000494,946.9844772500219,948.5667784160469,948.5682529580081,950.1838462910382,evensplit,FinalRedContrast,FinalGreenContrast,950.1849715830176,952.7172175000305,3,042226hb,001,2026-04-22_10h17.15.378,priming,,2026.1.3,59.95554294745488,2026-04-22 10h17.15.720211 -0700,
GR_Incongruent_RedCue_GreenProbe_Bottom,GreenGaborBoth.png,RedGaborBoth.png,GreenGaborDisappearBottom.png,RedGaborBoth.png,Red.mp3,red,bottom,39,39,0,,,,0,39,39,5,952.7329474580474,,,,,,,,,,,,,,,,bottom,,,,,,,,952.718988208042,954.3499627080164,954.3501265000086,959.5996994580491,959.6062631250243,960.8497883330565,960.8515097910422,961.8169171660556,961.8184720000136,963.4673198750243,mostlygreen,FinalRedContrast,FinalGreenContrast,963.4682525829994,964.4007130410173,3,042226hb,001,2026-04-22_10h17.15.378,priming,,2026.1.3,59.95554294745488,2026-04-22 10h17.15.720211 -0700,
GR_Incongruent_RedCue_GreenProbe_Top,GreenGaborBoth.png,RedGaborBoth.png,GreenGaborDisappearTop.png,RedGaborBoth.png,Red.mp3,red,top,40,40,0,,,,0,40,40,12,964.4163241250208,,,,,,,,,,,,,,,,top,,,,,,,,964.4008470830158,964.9667571660248,964.9669199580094,970.2165008750162,970.2231442080229,971.4664737080457,971.4681454160018,972.3669998750556,972.3679387910524,973.6007692500134,evensplit,FinalRedContrast,FinalGreenContrast,973.6013955410453,974.8673145000357,3,042226hb,001,2026-04-22_10h17.15.378,priming,,2026.1.3,59.95554294745488,2026-04-22 10h17.15.720211 -0700,
GR_Congruent_RedCue_RedProbe_Top,GreenGaborBoth.png,RedGaborBoth.png,GreenGaborBoth.png,RedGaborDisappearTop.png,Red.mp3,red,top,41,41,0,,,,0,41,41,32,974.8830360410502,,,,,,,,,,,,,,,,top,,,,,,,,974.8674167499994,975.5333967080223,975.5335611250484,980.7831232910394,980.7908350830548,982.0331202910165,982.0347690410563,983.3001833330491,983.3015999160125,985.9173322080169,evensplit,FinalRedContrast,FinalGreenContrast,985.9183432499995,988.2340695000021,2,042226hb,001,2026-04-22_10h17.15.378,priming,,2026.1.3,59.95554294745488,2026-04-22 10h17.15.720211 -0700,
GR_Congruent_GreenCue_GreenProbe_Top,GreenGaborBoth.png,RedGaborBoth.png,GreenGaborDisappearTop.png,RedGaborBoth.png,Green.mp3,green,top,42,42,0,,,,0,42,42,42,988.2497872910462,,,,,,,,,,,,,,,,top,,,,,,,,988.2360171660548,991.1833908750559,991.1835548750241,996.4332620410132,996.4398820830393,997.6833020410268,997.6849178750417,998.7670585830347,998.7680660830229,1000.8175158750382,evensplit,FinalRedContrast,FinalGreenContrast,1000.8180990410037,1002.3013323330088,2,042226hb,001,2026-04-22_10h17.15.378,priming,,2026.1.3,59.95554294745488,2026-04-22 10h17.15.720211 -0700,
GR_Congruent_GreenCue_GreenProbe_Bottom,GreenGaborBoth.png,RedGaborBoth.png,GreenGaborDisappearBottom.png,RedGaborBoth.png,Green.mp3,green,bottom,43,43,0,,,,0,43,43,3,1002.3165395000251,,,,,,,,,,,,,,,,bottom,,,,,,,,1002.3014373330516,1030.3273985410342,1030.327563000028,1035.5666739160079,1035.573180166015,1036.8168532910058,1036.8184482080396,1037.5504385830136,1037.5520402500406,1040.5508244580124,mostlygreen,FinalRedContrast,FinalGreenContrast,1040.5518953330466,1045.0842647500103,2,042226hb,001,2026-04-22_10h17.15.378,priming,,2026.1.3,59.95554294745488,2026-04-22 10h17.15.720211 -0700,
GR_Incongruent_RedCue_GreenProbe_Bottom,GreenGaborBoth.png,RedGaborBoth.png,GreenGaborDisappearBottom.png,RedGaborBoth.png,Red.mp3,red,bottom,44,44,0,,,,0,44,44,69,1045.0999630000442,,,,,,,,,,,,,,,,bottom,,,,,,,,1045.0860144580365,1046.1171461660415,1046.1173396660015,1051.36672262504,1051.3732452500262,1052.6167318330263,1052.6184302500333,1056.167150250054,1056.1688970830292,1057.8343926250236,mostlyred,FinalRedContrast,FinalGreenContrast,1057.8353770830436,1059.384347666055,2,042226hb,001,2026-04-22_10h17.15.378,priming,,2026.1.3,59.95554294745488,2026-04-22 10h17.15.720211 -0700,
GR_Incongruent_GreenCue_RedProbe_Top,GreenGaborBoth.png,RedGaborBoth.png,GreenGaborBoth.png,RedGaborDisappearTop.png,Green.mp3,green,top,45,45,0,,,,0,45,45,38,1059.400110583054,,,,,,,,,,,,,,,,top,,,,,,,,1059.386368416017,1060.4676338750287,1060.4678248750279,1065.7168027500156,1065.7233184160432,1066.9668125410099,1066.9685173330363,1072.5672927500564,1072.5686921250308,1075.2676381660276,mostlyred,FinalRedContrast,FinalGreenContrast,1075.2686632910045,1078.1344340000069,3,042226hb,001,2026-04-22_10h17.15.378,priming,,2026.1.3,59.95554294745488,2026-04-22 10h17.15.720211 -0700,
GR_Incongruent_RedCue_GreenProbe_Top,GreenGaborBoth.png,RedGaborBoth.png,GreenGaborDisappearTop.png,RedGaborBoth.png,Red.mp3,red,top,46,46,0,,,,0,46,46,4,1078.15016345802,,,,,,,,,,,,,,,,bottom,,,,,,,,1078.1361323750461,1079.2338664160343,1079.23403625004,1084.4835768750054,1084.4911327500013,1085.7335293750511,1085.7351233330555,1087.3173030830221,1087.3181632910273,1089.6178552500205,evensplit,FinalRedContrast,FinalGreenContrast,1089.6188540000003,1090.8848596250173,2,042226hb,001,2026-04-22_10h17.15.378,priming,,2026.1.3,59.95554294745488,2026-04-22 10h17.15.720211 -0700,
GR_Incongruent_GreenCue_RedProbe_Bottom,GreenGaborBoth.png,RedGaborBoth.png,GreenGaborBoth.png,RedGaborDisappearBottom.png,Green.mp3,green,bottom,47,47,0,,,,0,47,47,47,1090.9002325410256,,,,,,,,,,,,,,,,bottom,,,,,,,,1090.8868711250252,1091.7675819160067,1091.7677622080082,1097.0169915410224,1097.0241325829993,1098.2670607500477,1098.2686531250365,1099.1341156660346,1099.1348475410487,1100.9345278330147,mostlyred,FinalRedContrast,FinalGreenContrast,1100.9355097500375,1102.75116337504,2,042226hb,001,2026-04-22_10h17.15.378,priming,,2026.1.3,59.95554294745488,2026-04-22 10h17.15.720211 -0700,
GR_Incongruent_GreenCue_RedProbe_Top,GreenGaborBoth.png,RedGaborBoth.png,GreenGaborBoth.png,RedGaborDisappearTop.png,Green.mp3,green,top,48,48,0,,,,0,48,48,22,1102.7669455410214,,,,,,,,,,,,,,,,top,,,,,,,,1102.7512662080117,1103.6843587500043,1103.6845521660289,1108.933614416048,1108.9402250000276,1110.183693708037,1110.1854597910424,1110.9173672500183,1110.919035916042,1112.9010714160395,mostlyred,FinalRedContrast,FinalGreenContrast,1112.9023172910092,1114.7346358750365,1,042226hb,001,2026-04-22_10h17.15.378,priming,,2026.1.3,59.95554294745488,2026-04-22 10h17.15.720211 -0700,
GR_Congruent_GreenCue_GreenProbe_Top,GreenGaborBoth.png,RedGaborBoth.png,GreenGaborDisappearTop.png,RedGaborBoth.png,Green.mp3,green,top,49,49,0,,,,0,49,49,26,1114.7501982080285,,,,,,,,,,,,,,,,top,,,,,,,,1114.7347387910122,1115.5839603330242,1115.5841219580034,1120.8336489160429,1120.8412244580104,1122.0838070410537,1122.085140375013,1123.684221833013,1123.6854599580402,1129.234683708055,evensplit,FinalRedContrast,FinalGreenContrast,1129.2354855410522,1130.8345093330136,2,042226hb,001,2026-04-22_10h17.15.378,priming,,2026.1.3,59.95554294745488,2026-04-22 10h17.15.720211 -0700,
GR_Incongruent_RedCue_GreenProbe_Top,GreenGaborBoth.png,RedGaborBoth.png,GreenGaborDisappearTop.png,RedGaborBoth.png,Red.mp3,red,top,50,50,0,,,,0,50,50,60,1130.8504206250072,,,,,,,,,,,,,,,,top,,,,,,,,1130.8362566660508,1131.4510663330439,1131.4512625000207,1136.700559791003,1136.7086260410142,1137.9504412080278,1137.9518911660416,1139.7841507910052,1139.7855967910145,1140.4851160410326,mostlyred,FinalRedContrast,FinalGreenContrast,1140.4854008750408,1141.7845659580198,3,042226hb,001,2026-04-22_10h17.15.378,priming,,2026.1.3,59.95554294745488,2026-04-22 10h17.15.720211 -0700,
GR_Incongruent_RedCue_GreenProbe_Bottom,GreenGaborBoth.png,RedGaborBoth.png,GreenGaborDisappearBottom.png,RedGaborBoth.png,Red.mp3,red,bottom,51,51,0,,,,0,51,51,13,1141.8003789160284,,,,,,,,,,,,,,,,bottom,,,,,,,,1141.7846678330097,1143.0674250830198,1143.067589791026,1148.3170584580512,1148.3243805410457,1149.5671896660351,1149.5684920410276,1150.267508583027,1150.2691398750176,1153.4847288750461,mostlyred,FinalRedContrast,FinalGreenContrast,1153.4857205000008,1154.6681595410337,3,042226hb,001,2026-04-22_10h17.15.378,priming,,2026.1.3,59.95554294745488,2026-04-22 10h17.15.720211 -0700,
GR_Congruent_RedCue_RedProbe_Top,GreenGaborBoth.png,RedGaborBoth.png,GreenGaborBoth.png,RedGaborDisappearTop.png,Red.mp3,red,top,52,52,0,,,,0,52,52,16,1154.6838117500301,,,,,,,,,,,,,,,,top,,,,,,,,1154.6682985410444,1155.0847709580557,1155.0849321660353,1160.3338693330297,1160.341509291029,1161.5838663330069,1161.5860924160224,1162.051106791012,1162.0519750000094,1164.084968875046,mostlyred,FinalRedContrast,FinalGreenContrast,1164.0852756660315,1170.6180705000297,3,042226hb,001,2026-04-22_10h17.15.378,priming,,2026.1.3,59.95554294745488,2026-04-22 10h17.15.720211 -0700,
GR_Incongruent_RedCue_GreenProbe_Top,GreenGaborBoth.png,RedGaborBoth.png,GreenGaborDisappearTop.png,RedGaborBoth.png,Red.mp3,red,top,53,53,0,,,,0,53,53,20,1170.6338295410387,,,,,,,,,,,,,,,,top,,,,,,,,1170.6181730000535,1178.2175758750527,1178.2177420830121,1183.467281875026,1183.4748659160105,1184.7171978750266,1184.7187197080348,1186.1010057500098,1186.1023907500203,1187.2016231250018,allgreen,FinalRedContrast,FinalGreenContrast,1187.20229216601,1189.234894208028,3,042226hb,001,2026-04-22_10h17.15.378,priming,,2026.1.3,59.95554294745488,2026-04-22 10h17.15.720211 -0700,
GR_Congruent_GreenCue_GreenProbe_Bottom,GreenGaborBoth.png,RedGaborBoth.png,GreenGaborDisappearBottom.png,RedGaborBoth.png,Green.mp3,green,bottom,54,54,0,,,,0,54,54,35,1189.2506856660475,,,,,,,,,,,,,,,,bottom,,,,,,,,1189.2369842500193,1193.9676417500013,1193.9678040000144,1199.2173402500339,1199.2238638330018,1200.4674260830507,1200.4690703750239,1201.7844704160234,1201.7860831660219,1202.75148854102,evensplit,FinalRedContrast,FinalGreenContrast,1202.7525967080146,1204.3515540000517,3,042226hb,001,2026-04-22_10h17.15.378,priming,,2026.1.3,59.95554294745488,2026-04-22 10h17.15.720211 -0700,
GR_Congruent_GreenCue_GreenProbe_Bottom,GreenGaborBoth.png,RedGaborBoth.png,GreenGaborDisappearBottom.png,RedGaborBoth.png,Green.mp3,green,bottom,55,55,0,,,,0,55,55,59,1204.3673007910256,,,,,,,,,,,,,,,,bottom,,,,,,,,1204.3516569580534,1205.5176020830404,1205.5177628750098,1210.767431291053,1210.7740581660182,1212.01742370805,1212.019056375022,1213.084481124999,1213.0860882910201,1214.3349230410531,allgreen,FinalRedContrast,FinalGreenContrast,1214.3356343750493,1215.5682258330053,3,042226hb,001,2026-04-22_10h17.15.378,priming,,2026.1.3,59.95554294745488,2026-04-22 10h17.15.720211 -0700,
GR_Congruent_GreenCue_GreenProbe_Top,GreenGaborBoth.png,RedGaborBoth.png,GreenGaborDisappearTop.png,RedGaborBoth.png,Green.mp3,green,top,56,56,0,,,,0,56,56,50,1215.5838864160469,,,,,,,,,,,,,,,,bottom,,,,,,,,1215.5683325410355,1216.4554742500186,1216.4556425000192,1221.7008602080168,1221.707264000026,1222.9508213750087,1222.9525575410225,1225.0346410000348,1225.035990916018,1228.4349202500307,allred,FinalRedContrast,FinalGreenContrast,1228.435547916044,1231.7184292910388,3,042226hb,001,2026-04-22_10h17.15.378,priming,,2026.1.3,59.95554294745488,2026-04-22 10h17.15.720211 -0700,
GR_Incongruent_GreenCue_RedProbe_Bottom,GreenGaborBoth.png,RedGaborBoth.png,GreenGaborBoth.png,RedGaborDisappearBottom.png,Green.mp3,green,bottom,57,57,0,,,,0,57,57,31,1231.7340829580207,,,,,,,,,,,,,,,,bottom,,,,,,,,1231.718561708054,1232.9178634580458,1232.9180334160337,1238.167479833006,1238.1749319160008,1239.4175254580332,1239.4192943750531,1240.2512195000309,1240.2523030830198,1241.151814041019,mostlyred,FinalRedContrast,FinalGreenContrast,1241.1526488750242,1242.5183357080095,2,042226hb,001,2026-04-22_10h17.15.378,priming,,2026.1.3,59.95554294745488,2026-04-22 10h17.15.720211 -0700,
GR_Congruent_RedCue_RedProbe_Bottom,GreenGaborBoth.png,RedGaborBoth.png,GreenGaborBoth.png,RedGaborDisappearBottom.png,Red.mp3,red,bottom,58,58,0,,,,0,58,58,17,1242.534063583007,,,,,,,,,,,,,,,,bottom,,,,,,,,1242.5201555000385,1248.6516649160185,1248.6518488750444,1253.901016125048,1253.9074557080166,1255.1509416250046,1255.152971583011,1256.6680437080213,1256.669498375035,1261.4852204160416,mostlyred,FinalRedContrast,FinalGreenContrast,1261.485512666055,1262.451845375006,1,042226hb,001,2026-04-22_10h17.15.378,priming,,2026.1.3,59.95554294745488,2026-04-22 10h17.15.720211 -0700,
RR_non_riv_catch_GreenCue_RedProbe_Top,Blank.png,RedGaborBoth.png,Blank.png,RedGaborDisappearTop.png,Green.mp3,green,top,59,59,0,,,,0,59,59,74,1262.4676132500172,,,,,,,,,,,,,,,,top,,,,,,,,1262.4538758330164,1262.884593875031,1262.8847545830067,1268.134272000054,1268.1409706660197,1269.384348875028,1269.3859303330537,1270.184808000049,1270.1863919580355,1270.8851797080133,allred,FinalRedContrast,FinalGreenContrast,1270.885868958023,1271.735160250042,2,042226hb,001,2026-04-22_10h17.15.378,priming,,2026.1.3,59.95554294745488,2026-04-22 10h17.15.720211 -0700,
GG_non_riv_catch_GreenCue_GreenProbe_Bottom,GreenGaborBoth.png,Blank.png,GreenGaborDisappearBottom.png,Blank.png,Green.mp3,green,bottom,60,60,0,,,,0,60,60,79,1271.7508328750264,,,,,,,,,,,,,,,,bottom,,,,,,,,1271.7352611660026,1272.1679950410035,1272.168161541049,1277.4176601250074,1277.423186250031,1278.6676941660116,1278.669544916018,1281.4517970830202,1281.4524155410472,1293.2853141250089,mostlyred,FinalRedContrast,FinalGreenContrast,1293.2857083750423,1295.0018281250377,2,042226hb,001,2026-04-22_10h17.15.378,priming,,2026.1.3,59.95554294745488,2026-04-22 10h17.15.720211 -0700,
GR_Incongruent_GreenCue_RedProbe_Bottom,GreenGaborBoth.png,RedGaborBoth.png,GreenGaborBoth.png,RedGaborDisappearBottom.png,Green.mp3,green,bottom,61,61,0,,,,0,61,61,55,1295.0176770830294,,,,,,,,,,,,,,,,bottom,,,,,,,,1295.0019500000053,1295.6682837080443,1295.6684461250552,1300.9178155410336,1300.9242960410193,1302.1678200410097,1302.1693690410466,1303.951538125053,1303.953115375014,1306.0518215000047,evensplit,FinalRedContrast,FinalGreenContrast,1306.0530580830527,1307.9019883750007,3,042226hb,001,2026-04-22_10h17.15.378,priming,,2026.1.3,59.95554294745488,2026-04-22 10h17.15.720211 -0700,
GR_Congruent_RedCue_RedProbe_Bottom,GreenGaborBoth.png,RedGaborBoth.png,GreenGaborBoth.png,RedGaborDisappearBottom.png,Red.mp3,red,bottom,62,62,0,,,,0,62,62,25,1307.9176755410153,,,,,,,,,,,,,,,,top,,,,,,,,1307.903658041032,1308.6181324580102,1308.6182970410446,1313.8676989160012,1313.8743358330103,1315.1177952080034,1315.1195224580006,1316.7850290830247,1316.7866073750192,1317.3687212500372,evensplit,FinalRedContrast,FinalGreenContrast,1317.3697607080103,1319.7187876250246,3,042226hb,001,2026-04-22_10h17.15.378,priming,,2026.1.3,59.95554294745488,2026-04-22 10h17.15.720211 -0700,
GR_Congruent_RedCue_RedProbe_Top,GreenGaborBoth.png,RedGaborBoth.png,GreenGaborBoth.png,RedGaborDisappearTop.png,Red.mp3,red,top,63,63,0,,,,0,63,63,56,1319.7344327080064,,,,,,,,,,,,,,,,top,,,,,,,,1319.7188951250282,1320.4348297080141,1320.4349962910055,1325.684542541043,1325.6922972500324,1326.934469333035,1326.9362669160473,1327.8016494160402,1327.8031609580503,1329.268659125024,evensplit,FinalRedContrast,FinalGreenContrast,1329.2696385830059,1331.3520615410525,3,042226hb,001,2026-04-22_10h17.15.378,priming,,2026.1.3,59.95554294745488,2026-04-22 10h17.15.720211 -0700,
RR_non_riv_catch_RedCue_RedProbe_Top,Blank.png,RedGaborBoth.png,Blank.png,RedGaborDisappearTop.png,Red.mp3,red,top,64,64,0,,,,0,64,64,72,1331.3678167500184,,,,,,,,,,,,,,,,top,,,,,,,,1331.3521620410029,1340.5182657080004,1340.5184320830158,1345.7679067080026,1345.7734800000326,1347.0179601660348,1347.0192015830544,1347.785098500026,1347.7866097500082,1348.5521806250326,allred,FinalRedContrast,FinalGreenContrast,1348.5525300410227,1349.468757958035,2,042226hb,001,2026-04-22_10h17.15.378,priming,,2026.1.3,59.95554294745488,2026-04-22 10h17.15.720211 -0700,
GR_Incongruent_GreenCue_RedProbe_Bottom,GreenGaborBoth.png,RedGaborBoth.png,GreenGaborBoth.png,RedGaborDisappearBottom.png,Green.mp3,green,bottom,65,65,0,,,,0,65,65,63,1349.4845275000553,,,,,,,,,,,,,,,,bottom,,,,,,,,1349.470846916025,1349.9182777910028,1349.9184415410273,1355.1679832910304,1355.1757967500016,1356.4179832080263,1356.4200722080423,1357.135030208039,1357.136266250047,1358.9688518750481,mostlyred,FinalRedContrast,FinalGreenContrast,1358.9700718750246,1360.1854321660358,3,042226hb,001,2026-04-22_10h17.15.378,priming,,2026.1.3,59.95554294745488,2026-04-22 10h17.15.720211 -0700,
GR_Incongruent_GreenCue_RedProbe_Top,GreenGaborBoth.png,RedGaborBoth.png,GreenGaborBoth.png,RedGaborDisappearTop.png,Green.mp3,green,top,66,66,0,,,,0,66,66,54,1360.2011730830418,,,,,,,,,,,,,,,,top,,,,,,,,1360.1856220830232,1360.9353857910028,1360.935569083027,1366.1845912910067,1366.1915535830194,1367.4345927500399,1367.436398291029,1369.0356361660524,1369.0365714580403,1369.8854599580518,allred,FinalRedContrast,FinalGreenContrast,1369.8857812909991,1373.968954541022,3,042226hb,001,2026-04-22_10h17.15.378,priming,,2026.1.3,59.95554294745488,2026-04-22 10h17.15.720211 -0700,
GR_Incongruent_GreenCue_RedProbe_Top,GreenGaborBoth.png,RedGaborBoth.png,GreenGaborBoth.png,RedGaborDisappearTop.png,Green.mp3,green,top,67,67,0,,,,0,67,67,30,1373.9846534160315,,,,,,,,,,,,,,,,top,,,,,,,,1373.9690780000528,1380.7017027910333,1380.7018685000367,1385.9514857080067,1385.9591545410221,1387.2015083330334,1387.2030814160244,1388.201920750027,1388.203588125005,1390.9523641660344,mostlyred,FinalRedContrast,FinalGreenContrast,1390.952864333056,1394.1522779580555,2,042226hb,001,2026-04-22_10h17.15.378,priming,,2026.1.3,59.95554294745488,2026-04-22 10h17.15.720211 -0700,
GR_Incongruent_RedCue_GreenProbe_Top,GreenGaborBoth.png,RedGaborBoth.png,GreenGaborDisappearTop.png,RedGaborBoth.png,Red.mp3,red,top,68,68,0,,,,0,68,68,28,1394.1681107080076,,,,,,,,,,,,,,,,top,,,,,,,,1394.1542348330258,1395.8017815000494,1395.8019510830054,1401.0515045830398,1401.0591133330017,1402.3014724160312,1402.3033547080122,1403.0685323750367,1403.0701111660455,1405.3190084160306,evensplit,FinalRedContrast,FinalGreenContrast,1405.319753541029,1406.8356708750362,3,042226hb,001,2026-04-22_10h17.15.378,priming,,2026.1.3,59.95554294745488,2026-04-22 10h17.15.720211 -0700,
GR_Incongruent_GreenCue_RedProbe_Bottom,GreenGaborBoth.png,RedGaborBoth.png,GreenGaborBoth.png,RedGaborDisappearBottom.png,Green.mp3,green,bottom,69,69,0,,,,0,69,69,15,1406.8514078750159,,,,,,,,,,,,,,,,top,,,,,,,,1406.8376642080257,1418.18523766601,1418.18540204101,1423.4349568750476,1423.4420189160155,1424.6848307080218,1424.6867196660023,1426.385364916001,1426.3869172910345,1428.3358445830527,allgreen,FinalRedContrast,FinalGreenContrast,1428.3369068330503,1432.8858193330234,3,042226hb,001,2026-04-22_10h17.15.378,priming,,2026.1.3,59.95554294745488,2026-04-22 10h17.15.720211 -0700,
GR_Congruent_RedCue_RedProbe_Top,GreenGaborBoth.png,RedGaborBoth.png,GreenGaborBoth.png,RedGaborDisappearTop.png,Red.mp3,red,top,70,70,0,,,,0,70,70,40,1432.9014982080553,,,,,,,,,,,,,,,,top,,,,,,,,1432.8874980000546,1436.9352007500129,1436.9353685000096,1442.1848863750347,1442.1925803750055,1443.4349839580245,1443.4366369580384,1444.5686781250406,1444.5699116660398,1445.3025351250544,mostlyred,FinalRedContrast,FinalGreenContrast,1445.3029036660446,1446.05242016603,3,042226hb,001,2026-04-22_10h17.15.378,priming,,2026.1.3,59.95554294745488,2026-04-22 10h17.15.720211 -0700,
GR_Congruent_RedCue_RedProbe_Bottom,GreenGaborBoth.png,RedGaborBoth.png,GreenGaborBoth.png,RedGaborDisappearBottom.png,Red.mp3,red,bottom,71,71,0,,,,0,71,71,57,1446.0681547910208,,,,,,,,,,,,,,,,bottom,,,,,,,,1446.0525298330467,1446.9020363330492,1446.9022007080493,1452.1517475,1452.158680833003,1453.4017847500509,1453.4033843750367,1454.1855384160299,1454.1865582080209,1455.3692279580282,mostlyred,FinalRedContrast,FinalGreenContrast,1455.3697894160287,1456.4859208330163,4,042226hb,001,2026-04-22_10h17.15.378,priming,,2026.1.3,59.95554294745488,2026-04-22 10h17.15.720211 -0700,
GR_Incongruent_GreenCue_RedProbe_Top,GreenGaborBoth.png,RedGaborBoth.png,GreenGaborBoth.png,RedGaborDisappearTop.png,Green.mp3,green,top,72,72,0,,,,0,72,72,46,1456.5016790410154,,,,,,,,,,,,,,,,top,,,,,,,,1456.4879251660313,1458.1686826250516,1458.1688453750103,1463.4183940410148,1463.4249206250533,1464.6684248750098,1464.6699490000028,1466.0021028330084,1466.003710791003,1467.335928458022,mostlygreen,FinalRedContrast,FinalGreenContrast,1467.3370032910025,1470.1525100000435,3,042226hb,001,2026-04-22_10h17.15.378,priming,,2026.1.3,59.95554294745488,2026-04-22 10h17.15.720211 -0700,
GR_Incongruent_GreenCue_RedProbe_Top,GreenGaborBoth.png,RedGaborBoth.png,GreenGaborBoth.png,RedGaborDisappearTop.png,Green.mp3,green,top,73,73,0,,,,0,73,73,62,1470.1683570410241,,,,,,,,,,,,,,,,top,,,,,,,,1470.1526120000053,1470.8193111660075,1470.8194998750114,1476.068456833018,1476.0751021660399,1477.3184173750342,1477.3199912500568,1480.9023033750127,1480.9037488750182,1482.5027542500175,mostlygreen,FinalRedContrast,FinalGreenContrast,1482.5037360000424,1484.25278220803,3,042226hb,001,2026-04-22_10h17.15.378,priming,,2026.1.3,59.95554294745488,2026-04-22 10h17.15.720211 -0700,
GR_Incongruent_GreenCue_RedProbe_Bottom,GreenGaborBoth.png,RedGaborBoth.png,GreenGaborBoth.png,RedGaborDisappearBottom.png,Green.mp3,green,bottom,74,74,0,,,,0,74,74,7,1484.2684927080409,,,,,,,,,,,,,,,,bottom,,,,,,,,1484.2528845830238,1485.6192240000237,1485.619420166011,1490.8685869160108,1490.8761452500476,1492.1185607080115,1492.1200863750419,1492.9189242499997,1492.9203169580433,1494.0199121660553,evensplit,FinalRedContrast,FinalGreenContrast,1494.0202002910082,1495.402710208029,3,042226hb,001,2026-04-22_10h17.15.378,priming,,2026.1.3,59.95554294745488,2026-04-22 10h17.15.720211 -0700,
GR_Incongruent_RedCue_GreenProbe_Top,GreenGaborBoth.png,RedGaborBoth.png,GreenGaborDisappearTop.png,RedGaborBoth.png,Red.mp3,red,top,75,75,0,,,,0,75,75,68,1495.4185131660197,,,,,,,,,,,,,,,,top,,,,,,,,1495.4044122910127,1495.9522350000334,1495.9523975830525,1501.2019761660486,1501.2095189579995,1502.451905875001,1502.4534992080298,1503.6690081250272,1503.6704856660217,1505.7527475830284,mostlyred,FinalRedContrast,FinalGreenContrast,1505.753389041056,1507.7193731250009,3,042226hb,001,2026-04-22_10h17.15.378,priming,,2026.1.3,59.95554294745488,2026-04-22 10h17.15.720211 -0700,
GR_Congruent_RedCue_RedProbe_Bottom,GreenGaborBoth.png,RedGaborBoth.png,GreenGaborBoth.png,RedGaborDisappearBottom.png,Red.mp3,red,bottom,76,76,0,,,,0,76,76,65,1507.7351863330114,,,,,,,,,,,,,,,,bottom,,,,,,,,1507.7194765410386,1510.085523125017,1510.08569037501,1515.3352855410194,1515.3417015000014,1516.5853593750508,1516.5866953750374,1518.1024654580397,1518.1034905410488,1518.9528743750416,mostlyred,FinalRedContrast,FinalGreenContrast,1518.9534589160467,1523.9195722500444,4,042226hb,001,2026-04-22_10h17.15.378,priming,,2026.1.3,59.95554294745488,2026-04-22 10h17.15.720211 -0700,
GR_Congruent_RedCue_RedProbe_Bottom,GreenGaborBoth.png,RedGaborBoth.png,GreenGaborBoth.png,RedGaborDisappearBottom.png,Red.mp3,red,bottom,77,77,0,,,,0,77,77,9,1523.9352094160276,,,,,,,,,,,,,,,,bottom,,,,,,,,1523.9197330830502,1525.0189736250322,1525.0191405830556,1530.2686974160024,1530.2750898330123,1531.518707750016,1531.5204177080304,1532.8361021660385,1532.8364991660346,1536.036433958041,mostlyred,FinalRedContrast,FinalGreenContrast,1536.0367427080055,1542.6695121250232,4,042226hb,001,2026-04-22_10h17.15.378,priming,,2026.1.3,59.95554294745488,2026-04-22 10h17.15.720211 -0700,
RR_non_riv_catch_RedCue_RedProbe_Bottom,Blank.png,RedGaborBoth.png,Blank.png,RedGaborDisappearBottom.png,Red.mp3,red,bottom,78,78,0,,,,0,78,78,73,1542.6852919160156,,,,,,,,,,,,,,,,bottom,,,,,,,,1542.669619375025,1548.9358497080393,1548.9360161250224,1554.1853840000113,1554.1915925830253,1555.435447708005,1555.4371735410532,1559.202873000002,1559.2042441660305,1561.4863167500007,allred,FinalRedContrast,FinalGreenContrast,1561.486675166001,1563.436228916049,3,042226hb,001,2026-04-22_10h17.15.378,priming,,2026.1.3,59.95554294745488,2026-04-22 10h17.15.720211 -0700,
GR_Incongruent_RedCue_GreenProbe_Bottom,GreenGaborBoth.png,RedGaborBoth.png,GreenGaborDisappearBottom.png,RedGaborBoth.png,Red.mp3,red,bottom,79,79,0,,,,0,79,79,37,1563.4520368330413,,,,,,,,,,,,,,,,top,,,,,,,,1563.4363321660203,1564.0191321250168,1564.0192928330507,1569.2687636250048,1569.2764094580198,1570.5188010000275,1570.5205732910545,1571.7859025000362,1571.7875166660524,1573.7196481660358,allgreen,FinalRedContrast,FinalGreenContrast,1573.7208178750006,1576.1697844160371,3,042226hb,001,2026-04-22_10h17.15.378,priming,,2026.1.3,59.95554294745488,2026-04-22 10h17.15.720211 -0700,
GR_Congruent_RedCue_RedProbe_Bottom,GreenGaborBoth.png,RedGaborBoth.png,GreenGaborBoth.png,RedGaborDisappearBottom.png,Red.mp3,red,bottom,80,0,1,,,,1,0,80,1,1576.1853261250071,,,,,,,,,,,,,,,,bottom,,,,,,,,1576.1698966660188,1843.9702785000554,1843.9704873330193,1849.2198236250551,1849.2305616250378,1850.4697468330269,1850.4713495000033,1851.403576041048,1851.4052140830318,1852.3710636660107,mostlyred,FinalRedContrast,FinalGreenContrast,1852.371474125015,1853.9206941250013,4,042226hb,001,2026-04-22_10h17.15.378,priming,,2026.1.3,59.95554294745488,2026-04-22 10h17.15.720211 -0700,
GG_non_riv_catch_GreenCue_GreenProbe_Top,GreenGaborBoth.png,Blank.png,GreenGaborDisappearTop.png,Blank.png,Green.mp3,green,top,81,1,1,,,,1,1,81,78,1853.9364601660054,,,,,,,,,,,,,,,,top,,,,,,,,1853.9229845830123,1854.3034706250182,1854.3036395830568,1859.5531068330165,1859.560699750029,1860.803164083045,1860.804416916042,1862.403739875008,1862.4042282910086,1864.4873017910286,allgreen,FinalRedContrast,FinalGreenContrast,1864.4879517080262,1865.771239750029,4,042226hb,001,2026-04-22_10h17.15.378,priming,,2026.1.3,59.95554294745488,2026-04-22 10h17.15.720211 -0700,
GR_Incongruent_GreenCue_RedProbe_Top,GreenGaborBoth.png,RedGaborBoth.png,GreenGaborBoth.png,RedGaborDisappearTop.png,Green.mp3,green,top,82,2,1,,,,1,2,82,6,1865.786562125024,,,,,,,,,,,,,,,,top,,,,,,,,1865.7713502910337,1866.436929041054,1866.4370898750494,1871.686577375047,1871.6949939160259,1872.9365971250227,1872.938205958053,1873.9204164580442,1873.9216877080034,1874.5710080410354,mostlyred,FinalRedContrast,FinalGreenContrast,1874.57128766604,1876.5041195830563,4,042226hb,001,2026-04-22_10h17.15.378,priming,,2026.1.3,59.95554294745488,2026-04-22 10h17.15.720211 -0700,
GR_Congruent_RedCue_RedProbe_Bottom,GreenGaborBoth.png,RedGaborBoth.png,GreenGaborBoth.png,RedGaborDisappearBottom.png,Red.mp3,red,bottom,83,3,1,,,,1,3,83,41,1876.5198819159996,,,,,,,,,,,,,,,,bottom,,,,,,,,1876.5058512500254,1877.953617666033,1877.9537805410218,1883.203316583007,1883.2099626250565,1884.4533085830044,1884.4549943750026,1885.3037372500403,1885.3049466250231,1886.687442208,mostlyred,FinalRedContrast,FinalGreenContrast,1886.6884737080545,1888.3878189160023,3,042226hb,001,2026-04-22_10h17.15.378,priming,,2026.1.3,59.95554294745488,2026-04-22 10h17.15.720211 -0700,
GR_Incongruent_RedCue_GreenProbe_Top,GreenGaborBoth.png,RedGaborBoth.png,GreenGaborDisappearTop.png,RedGaborBoth.png,Red.mp3,red,top,84,4,1,,,,1,4,84,4,1888.403224291047,,,,,,,,,,,,,,,,top,,,,,,,,1888.3879323750152,1890.9534920000006,1890.9536556660314,1896.2032745830365,1896.2098248330294,1897.4533318750327,1897.4552920000278,1899.603877208021,1899.6047457500244,1901.7875997500378,mostlyred,FinalRedContrast,FinalGreenContrast,1901.7886924580089,1902.9042982080136,3,042226hb,001,2026-04-22_10h17.15.378,priming,,2026.1.3,59.95554294745488,2026-04-22 10h17.15.720211 -0700,
GR_Incongruent_GreenCue_RedProbe_Bottom,GreenGaborBoth.png,RedGaborBoth.png,GreenGaborBoth.png,RedGaborDisappearBottom.png,Green.mp3,green,bottom,85,5,1,,,,1,5,85,7,1902.9200219580089,,,,,,,,,,,,,,,,bottom,,,,,,,,1902.9062992500258,1915.9370434160228,1915.937207833049,1921.1868422080297,1921.1933929580264,1922.4367908750428,1922.438368083036,1923.4705717500183,1923.4719260410056,1924.5709547910374,mostlyred,FinalRedContrast,FinalGreenContrast,1924.5718482080265,1927.1209329160047,3,042226hb,001,2026-04-22_10h17.15.378,priming,,2026.1.3,59.95554294745488,2026-04-22 10h17.15.720211 -0700,
GR_Congruent_GreenCue_GreenProbe_Top,GreenGaborBoth.png,RedGaborBoth.png,GreenGaborDisappearTop.png,RedGaborBoth.png,Green.mp3,green,top,86,6,1,,,,1,6,86,26,1927.1367663330166,,,,,,,,,,,,,,,,top,,,,,,,,1927.1210885000182,1927.6704037080053,1927.6705730000394,1932.9202121250564,1932.9268534580478,1934.1701928330003,1934.1719005830237,1936.1039172080345,1936.1053342910018,1938.0377513330313,mostlyred,FinalRedContrast,FinalGreenContrast,1938.0380587080144,1941.3043617500225,3,042226hb,001,2026-04-22_10h17.15.378,priming,,2026.1.3,59.95554294745488,2026-04-22 10h17.15.720211 -0700,
GR_Congruent_GreenCue_GreenProbe_Top,GreenGaborBoth.png,RedGaborBoth.png,GreenGaborDisappearTop.png,RedGaborBoth.png,Green.mp3,green,top,87,7,1,,,,1,7,87,10,1941.3202443330083,,,,,,,,,,,,,,,,top,,,,,,,,1941.3044655830017,1944.1872200830257,1944.1873830830446,1949.4368310410064,1949.4434457500465,1950.6869489580276,1950.6883211660315,1951.4206585000502,1951.421783083002,1952.371060666046,evensplit,FinalRedContrast,FinalGreenContrast,1952.3721112910425,1954.5876838750555,4,042226hb,001,2026-04-22_10h17.15.378,priming,,2026.1.3,59.95554294745488,2026-04-22 10h17.15.720211 -0700,
GR_Congruent_GreenCue_GreenProbe_Bottom,GreenGaborBoth.png,RedGaborBoth.png,GreenGaborDisappearBottom.png,RedGaborBoth.png,Green.mp3,green,bottom,88,8,1,,,,1,8,88,43,1954.6034892910393,,,,,,,,,,,,,,,,bottom,,,,,,,,1954.5877885000082,1955.3205693330383,1955.3207314160536,1960.5701291250298,1960.5784101250465,1961.8202709160396,1961.8220052079996,1962.887419833045,1962.8888481660397,1964.587835333019,mostlyred,FinalRedContrast,FinalGreenContrast,1964.5881951660267,1965.904574416054,3,042226hb,001,2026-04-22_10h17.15.378,priming,,2026.1.3,59.95554294745488,2026-04-22 10h17.15.720211 -0700,
GR_Incongruent_RedCue_GreenProbe_Top,GreenGaborBoth.png,RedGaborBoth.png,GreenGaborDisappearTop.png,RedGaborBoth.png,Red.mp3,red,top,89,9,1,,,,1,9,89,28,1965.920276000048,,,,,,,,,,,,,,,,top,,,,,,,,1965.906219541037,1967.3706539580016,1967.3708165830467,1972.6203572910163,1972.6269557080232,1973.8703330830322,1973.8719615830341,1975.7374948750366,1975.7390849160147,1978.5212008750532,mostlyred,FinalRedContrast,FinalGreenContrast,1978.5221890000394,1982.2545042910497,3,042226hb,001,2026-04-22_10h17.15.378,priming,,2026.1.3,59.95554294745488,2026-04-22 10h17.15.720211 -0700,
GR_Incongruent_RedCue_GreenProbe_Bottom,GreenGaborBoth.png,RedGaborBoth.png,GreenGaborDisappearBottom.png,RedGaborBoth.png,Red.mp3,red,bottom,90,10,1,,,,1,10,90,5,1982.2702764580026,,,,,,,,,,,,,,,,top,,,,,,,,1982.2546519580064,1983.3539802500163,1983.3541427080054,1988.6036444160272,1988.6118029580102,1989.8536985000246,1989.855326708057,1991.087440125004,1991.0890315410215,1992.6711687080096,mostlyred,FinalRedContrast,FinalGreenContrast,1992.67238516605,1995.1378797080251,4,042226hb,001,2026-04-22_10h17.15.378,priming,,2026.1.3,59.95554294745488,2026-04-22 10h17.15.720211 -0700,
GR_Incongruent_RedCue_GreenProbe_Top,GreenGaborBoth.png,RedGaborBoth.png,GreenGaborDisappearTop.png,RedGaborBoth.png,Red.mp3,red,top,91,11,1,,,,1,11,91,36,1995.1535845830222,,,,,,,,,,,,,,,,top,,,,,,,,1995.137982541055,1997.4206760000088,1997.4208398750052,2002.6705289160018,2002.677156291029,2003.9205148750334,2003.9217382500065,2005.3546926250565,2005.3553825830459,2010.0213224160252,evensplit,FinalRedContrast,FinalGreenContrast,2010.022454458056,2017.3212322500185,3,042226hb,001,2026-04-22_10h17.15.378,priming,,2026.1.3,59.95554294745488,2026-04-22 10h17.15.720211 -0700,
RR_non_riv_catch_GreenCue_RedProbe_Top,Blank.png,RedGaborBoth.png,Blank.png,RedGaborDisappearTop.png,Green.mp3,green,top,92,12,1,,,,1,12,92,74,2017.3371173750493,,,,,,,,,,,,,,,,top,,,,,,,,2017.323429333046,2026.3040853750426,2026.3042522500036,2031.553905791021,2031.5608997500385,2032.80409637501,2032.8051442500437,2033.3880454580067,2033.3885649580043,2036.3216426660074,allred,FinalRedContrast,FinalGreenContrast,2036.3225009580492,2037.95512233302,4,042226hb,001,2026-04-22_10h17.15.378,priming,,2026.1.3,59.95554294745488,2026-04-22 10h17.15.720211 -0700,
GR_Incongruent_GreenCue_RedProbe_Bottom,GreenGaborBoth.png,RedGaborBoth.png,GreenGaborBoth.png,RedGaborDisappearBottom.png,Green.mp3,green,bottom,93,13,1,,,,1,13,93,71,2037.9705598330474,,,,,,,,,,,,,,,,bottom,,,,,,,,2037.9552462500287,2038.9377540830174,2038.9379305410548,2044.1873047080007,2044.1952175410115,2045.4373031250434,2045.438918541011,2046.1376371250371,2046.1390320000355,2047.088147875038,evensplit,FinalRedContrast,FinalGreenContrast,2047.0895640410017,2048.5881509580067,3,042226hb,001,2026-04-22_10h17.15.378,priming,,2026.1.3,59.95554294745488,2026-04-22 10h17.15.720211 -0700,
GR_Congruent_RedCue_RedProbe_Top,GreenGaborBoth.png,RedGaborBoth.png,GreenGaborBoth.png,RedGaborDisappearTop.png,Red.mp3,red,top,94,14,1,,,,1,14,94,16,2048.6038375000353,,,,,,,,,,,,,,,,bottom,,,,,,,,2048.589919375023,2049.3378949580365,2049.3380638330127,2054.587265500042,2054.5949587910436,2055.83725625003,2055.8389202910475,2057.054399583023,2057.0559831660357,2060.6214298330015,mostlyred,FinalRedContrast,FinalGreenContrast,2060.6226608750294,2063.688043791044,4,042226hb,001,2026-04-22_10h17.15.378,priming,,2026.1.3,59.95554294745488,2026-04-22 10h17.15.720211 -0700,
GR_Congruent_RedCue_RedProbe_Top,GreenGaborBoth.png,RedGaborBoth.png,GreenGaborBoth.png,RedGaborDisappearTop.png,Red.mp3,red,top,95,15,1,,,,1,15,95,48,2063.703877291002,,,,,,,,,,,,,,,,top,,,,,,,,2063.688170166046,2064.304161250009,2064.3043280410348,2069.553990125016,2069.5606188330567,2070.804077958048,2070.8055479160394,2071.471159458044,2071.4726152910152,2072.9049140000134,mostlyred,FinalRedContrast,FinalGreenContrast,2072.905783000053,2074.588290875021,4,042226hb,001,2026-04-22_10h17.15.378,priming,,2026.1.3,59.95554294745488,2026-04-22 10h17.15.720211 -0700,
RR_non_riv_catch_GreenCue_RedProbe_Bottom,Blank.png,RedGaborBoth.png,Blank.png,RedGaborDisappearBottom.png,Green.mp3,green,bottom,96,16,1,,,,1,16,96,75,2074.6039097500034,,,,,,,,,,,,,,,,bottom,,,,,,,,2074.590457500017,2076.4043715000153,2076.4045397910522,2081.654110958043,2081.659723458055,2082.9041219160426,2082.9056073750253,2083.7378105410025,2083.7395738750347,2084.8385947500356,allred,FinalRedContrast,FinalGreenContrast,2084.8389297910035,2085.838317708054,3,042226hb,001,2026-04-22_10h17.15.378,priming,,2026.1.3,59.95554294745488,2026-04-22 10h17.15.720211 -0700,
GR_Incongruent_GreenCue_RedProbe_Bottom,GreenGaborBoth.png,RedGaborBoth.png,GreenGaborBoth.png,RedGaborDisappearBottom.png,Green.mp3,green,bottom,97,17,1,,,,1,17,97,31,2085.853978958039,,,,,,,,,,,,,,,,bottom,,,,,,,,2085.838420083048,2086.4043738750042,2086.404542583041,2091.6540632080287,2091.660566250037,2092.9040945000015,2092.905615125026,2093.4378215830075,2093.4393383330316,2094.355326166027,mostlyred,FinalRedContrast,FinalGreenContrast,2094.35560483305,2095.4548925830168,3,042226hb,001,2026-04-22_10h17.15.378,priming,,2026.1.3,59.95554294745488,2026-04-22 10h17.15.720211 -0700,
GR_Incongruent_GreenCue_RedProbe_Top,GreenGaborBoth.png,RedGaborBoth.png,GreenGaborBoth.png,RedGaborDisappearTop.png,Green.mp3,green,top,98,18,1,,,,1,18,98,38,2095.4706418749993,,,,,,,,,,,,,,,,top,,,,,,,,2095.454996500048,2096.1044194160495,2096.1045838750433,2101.354048625042,2101.3616401250474,2102.604216250009,2102.6053594580153,2103.404697416001,2103.4057266660384,2105.5884590830537,mostlyred,FinalRedContrast,FinalGreenContrast,2105.588772750052,2110.788399541052,3,042226hb,001,2026-04-22_10h17.15.378,priming,,2026.1.3,59.95554294745488,2026-04-22 10h17.15.720211 -0700,
GR_Congruent_GreenCue_GreenProbe_Bottom,GreenGaborBoth.png,RedGaborBoth.png,GreenGaborDisappearBottom.png,RedGaborBoth.png,Green.mp3,green,bottom,99,19,1,,,,1,19,99,67,2110.8040865410003,,,,,,,,,,,,,,,,top,,,,,,,,2110.788522750023,2114.1378529580543,2114.1380139579996,2119.38745537505,2119.395207250025,2120.6375172910048,2120.6389597910456,2122.504614708014,2122.506000416004,2124.005062708049,mostlyred,FinalRedContrast,FinalGreenContrast,2124.0064654160524,2129.1216356660007,3,042226hb,001,2026-04-22_10h17.15.378,priming,,2026.1.3,59.95554294745488,2026-04-22 10h17.15.720211 -0700,
GR_Incongruent_RedCue_GreenProbe_Top,GreenGaborBoth.png,RedGaborBoth.png,GreenGaborDisappearTop.png,RedGaborBoth.png,Red.mp3,red,top,100,20,1,,,,1,20,100,52,2129.1373435000423,,,,,,,,,,,,,,,,bottom,,,,,,,,2129.1234685410163,2130.087825625029,2130.087992375018,2135.3375300410553,2135.3462435410474,2136.5876595000154,2136.58942766604,2137.521429916029,2137.522793375014,2139.538498333015,mostlyred,FinalRedContrast,FinalGreenContrast,2139.5391582080047,2140.6885092500015,3,042226hb,001,2026-04-22_10h17.15.378,priming,,2026.1.3,59.95554294745488,2026-04-22 10h17.15.720211 -0700,
GR_Congruent_GreenCue_GreenProbe_Bottom,GreenGaborBoth.png,RedGaborBoth.png,GreenGaborDisappearBottom.png,RedGaborBoth.png,Green.mp3,green,bottom,101,21,1,,,,1,21,101,59,2140.704302583006,,,,,,,,,,,,,,,,bottom,,,,,,,,2140.690490333014,2141.6713242080295,2141.6714891250012,2146.920982291049,2146.9287520830403,2148.171092125005,2148.1730502080172,2148.9714324580273,2148.972411583003,2150.0384551250027,evensplit,FinalRedContrast,FinalGreenContrast,2150.039002791047,2165.2050943750073,3,042226hb,001,2026-04-22_10h17.15.378,priming,,2026.1.3,59.95554294745488,2026-04-22 10h17.15.720211 -0700,
GR_Congruent_RedCue_RedProbe_Top,GreenGaborBoth.png,RedGaborBoth.png,GreenGaborBoth.png,RedGaborDisappearTop.png,Red.mp3,red,top,102,22,1,,,,1,22,102,24,2165.2210296660196,,,,,,,,,,,,,,,,top,,,,,,,,2165.2068350410555,2165.8713477500132,2165.8715118330438,2171.121140333009,2171.1287925410434,2172.371147500002,2172.3724552910426,2173.1548845830257,2173.1566330410424,2175.6053397500073,mostlyred,FinalRedContrast,FinalGreenContrast,2175.6056936660316,2176.655298666039,4,042226hb,001,2026-04-22_10h17.15.378,priming,,2026.1.3,59.95554294745488,2026-04-22 10h17.15.720211 -0700,
GR_Congruent_GreenCue_GreenProbe_Bottom,GreenGaborBoth.png,RedGaborBoth.png,GreenGaborDisappearBottom.png,RedGaborBoth.png,Green.mp3,green,bottom,103,23,1,,,,1,23,103,35,2176.671020333015,,,,,,,,,,,,,,,,bottom,,,,,,,,2176.6572698750533,2177.3384328330285,2177.338632916042,2182.587675083021,2182.594020291057,2183.8377475410234,2183.839369208028,2184.8048781660036,2184.806176333048,2186.455262250034,mostlyred,FinalRedContrast,FinalGreenContrast,2186.4563493750175,2188.5552300410345,3,042226hb,001,2026-04-22_10h17.15.378,priming,,2026.1.3,59.95554294745488,2026-04-22 10h17.15.720211 -0700,
GR_Congruent_GreenCue_GreenProbe_Top,GreenGaborBoth.png,RedGaborBoth.png,GreenGaborDisappearTop.png,RedGaborBoth.png,Green.mp3,green,top,104,24,1,,,,1,24,104,2,2188.571011041,,,,,,,,,,,,,,,,top,,,,,,,,2188.5553315830184,2190.7714161660406,2190.7715786660556,2196.021172458015,2196.027696541045,2197.2711685830145,2197.272649625025,2197.9882711660466,2197.9897705000476,2200.2053797500557,mostlyred,FinalRedContrast,FinalGreenContrast,2200.20647491602,2203.522065625002,4,042226hb,001,2026-04-22_10h17.15.378,priming,,2026.1.3,59.95554294745488,2026-04-22 10h17.15.720211 -0700,
GR_Incongruent_RedCue_GreenProbe_Bottom,GreenGaborBoth.png,RedGaborBoth.png,GreenGaborDisappearBottom.png,RedGaborBoth.png,Red.mp3,red,bottom,105,25,1,,,,1,25,105,13,2203.5378908750135,,,,,,,,,,,,,,,,bottom,,,,,,,,2203.5237832080456,2208.171534208057,2208.1717001660145,2213.4212028330076,2213.427662208036,2214.6712903330335,2214.673263458011,2215.5883231250336,2215.590049625025,2218.988727333024,mostlyred,FinalRedContrast,FinalGreenContrast,2218.989907375013,2221.8553837080253,4,042226hb,001,2026-04-22_10h17.15.378,priming,,2026.1.3,59.95554294745488,2026-04-22 10h17.15.720211 -0700,
GR_Incongruent_RedCue_GreenProbe_Top,GreenGaborBoth.png,RedGaborBoth.png,GreenGaborDisappearTop.png,RedGaborBoth.png,Red.mp3,red,top,106,26,1,,,,1,26,106,68,2221.8711347909993,,,,,,,,,,,,,,,,top,,,,,,,,2221.855485958047,2236.521542750008,2236.5217110000085,2241.7713856250048,2241.779891083017,2243.021419125027,2243.0226003749995,2243.8551319580292,2243.8561634580255,2245.705505291,evensplit,FinalRedContrast,FinalGreenContrast,2245.7066016250174,2252.3389148330316,3,042226hb,001,2026-04-22_10h17.15.378,priming,,2026.1.3,59.95554294745488,2026-04-22 10h17.15.720211 -0700,
GR_Congruent_GreenCue_GreenProbe_Top,GreenGaborBoth.png,RedGaborBoth.png,GreenGaborDisappearTop.png,RedGaborBoth.png,Green.mp3,green,top,107,27,1,,,,1,27,107,34,2252.3546304580523,,,,,,,,,,,,,,,,top,,,,,,,,2252.3410261660465,2254.7050600830116,2254.705227166007,2259.9546971250093,2259.9613847500295,2261.2047384160105,2261.20652258303,2262.3389708330506,2262.3392488330137,2265.1054822500446,evensplit,FinalRedContrast,FinalGreenContrast,2265.106329291011,2269.022246166016,3,042226hb,001,2026-04-22_10h17.15.378,priming,,2026.1.3,59.95554294745488,2026-04-22 10h17.15.720211 -0700,
GR_Incongruent_RedCue_GreenProbe_Top,GreenGaborBoth.png,RedGaborBoth.png,GreenGaborDisappearTop.png,RedGaborBoth.png,Red.mp3,red,top,108,28,1,,,,1,28,108,44,2269.0379272080027,,,,,,,,,,,,,,,,top,,,,,,,,2269.0241150000365,2271.121826333052,2271.1219926660415,2276.371433541004,2276.378109708021,2277.6214616250363,2277.6231830410543,2280.488555500051,2280.490179416025,2282.0223031660425,mostlyred,FinalRedContrast,FinalGreenContrast,2282.0233183750533,2283.1223137500347,3,042226hb,001,2026-04-22_10h17.15.378,priming,,2026.1.3,59.95554294745488,2026-04-22 10h17.15.720211 -0700,
GR_Congruent_RedCue_RedProbe_Bottom,GreenGaborBoth.png,RedGaborBoth.png,GreenGaborBoth.png,RedGaborDisappearBottom.png,Red.mp3,red,bottom,109,29,1,,,,1,29,109,9,2283.1381276250468,,,,,,,,,,,,,,,,bottom,,,,,,,,2283.1224202500307,2296.721794375044,2296.7219599580276,2301.971491250035,2301.9791547500063,2303.2214777500485,2303.2232487500296,2303.9553365830216,2303.9567147500347,2305.5725124160526,evensplit,FinalRedContrast,FinalGreenContrast,2305.573196250014,2306.289101833012,2,042226hb,001,2026-04-22_10h17.15.378,priming,,2026.1.3,59.95554294745488,2026-04-22 10h17.15.720211 -0700,
GR_Congruent_RedCue_RedProbe_Bottom,GreenGaborBoth.png,RedGaborBoth.png,GreenGaborBoth.png,RedGaborDisappearBottom.png,Red.mp3,red,bottom,110,30,1,,,,1,30,110,25,2306.304939916008,,,,,,,,,,,,,,,,bottom,,,,,,,,2306.2892028330243,2306.9886389580206,2306.9888305000495,2312.2382833330194,2312.2448204579996,2313.488296333002,2313.4899920410244,2315.238734625047,2315.2400913330493,2316.6224938330124,evensplit,FinalRedContrast,FinalGreenContrast,2316.6236232500523,2318.005852791015,3,042226hb,001,2026-04-22_10h17.15.378,priming,,2026.1.3,59.95554294745488,2026-04-22 10h17.15.720211 -0700,
GR_Incongruent_RedCue_GreenProbe_Bottom,GreenGaborBoth.png,RedGaborBoth.png,GreenGaborDisappearBottom.png,RedGaborBoth.png,Red.mp3,red,bottom,111,31,1,,,,1,31,111,37,2318.021458916017,,,,,,,,,,,,,,,,bottom,,,,,,,,2318.0059627500013,2319.1342949160025,2319.1345327910385,2324.3716629160335,2324.3794872910366,2325.6216698330245,2325.6233548330492,2326.4220714160474,2326.423571916006,2328.389193250041,mostlyred,FinalRedContrast,FinalGreenContrast,2328.389748375048,2329.2558075410197,3,042226hb,001,2026-04-22_10h17.15.378,priming,,2026.1.3,59.95554294745488,2026-04-22 10h17.15.720211 -0700,
GR_Congruent_GreenCue_GreenProbe_Bottom,GreenGaborBoth.png,RedGaborBoth.png,GreenGaborDisappearBottom.png,RedGaborBoth.png,Green.mp3,green,bottom,112,32,1,,,,1,32,112,11,2329.2715375410044,,,,,,,,,,,,,,,,bottom,,,,,,,,2329.257905791048,2330.005374875036,2330.0055411250214,2335.255025041057,2335.2615630000364,2336.504956916033,2336.507131708029,2337.25591341604,2337.2571702910354,2346.5392411660287,evensplit,FinalRedContrast,FinalGreenContrast,2346.5402925000526,2348.1230077910004,3,042226hb,001,2026-04-22_10h17.15.378,priming,,2026.1.3,59.95554294745488,2026-04-22 10h17.15.720211 -0700,
GR_Congruent_RedCue_RedProbe_Top,GreenGaborBoth.png,RedGaborBoth.png,GreenGaborBoth.png,RedGaborDisappearTop.png,Red.mp3,red,top,113,33,1,,,,1,33,113,32,2348.138442458003,,,,,,,,,,,,,,,,top,,,,,,,,2348.1248637910467,2348.8053678750293,2348.805531250022,2354.0550771660055,2354.0627563330345,2355.305092666007,2355.3065473750466,2355.9555178750306,2355.956819416024,2357.7892361250124,mostlyred,FinalRedContrast,FinalGreenContrast,2357.7903920829995,2359.9561025000294,3,042226hb,001,2026-04-22_10h17.15.378,priming,,2026.1.3,59.95554294745488,2026-04-22 10h17.15.720211 -0700,
GG_non_riv_catch_RedCue_GreenProbe_Bottom,GreenGaborBoth.png,Blank.png,GreenGaborDisappearBottom.png,Blank.png,Red.mp3,red,bottom,114,34,1,,,,1,34,114,77,2359.9716185000143,,,,,,,,,,,,,,,,bottom,,,,,,,,2359.956214583013,2362.2054265830084,2362.205589916033,2367.4551069160225,2367.4614360410487,2368.70511262503,2368.7067973750527,2371.5225741660106,2371.5231260000146,2373.172755208041,allgreen,FinalRedContrast,FinalGreenContrast,2373.173782916041,2375.806074375054,2,042226hb,001,2026-04-22_10h17.15.378,priming,,2026.1.3,59.95554294745488,2026-04-22 10h17.15.720211 -0700,
RR_non_riv_catch_RedCue_RedProbe_Bottom,Blank.png,RedGaborBoth.png,Blank.png,RedGaborDisappearBottom.png,Red.mp3,red,bottom,115,35,1,,,,1,35,115,73,2375.821820958052,,,,,,,,,,,,,,,,bottom,,,,,,,,2375.806178166007,2377.3889019160415,2377.3890684160287,2382.638553958037,2382.6450420830515,2383.888590541028,2383.890327791043,2385.1390096250107,2385.140531125013,2385.9226964160334,allred,FinalRedContrast,FinalGreenContrast,2385.923627125041,2390.6560505000525,2,042226hb,001,2026-04-22_10h17.15.378,priming,,2026.1.3,59.95554294745488,2026-04-22 10h17.15.720211 -0700,
GR_Congruent_GreenCue_GreenProbe_Bottom,GreenGaborBoth.png,RedGaborBoth.png,GreenGaborDisappearBottom.png,RedGaborBoth.png,Green.mp3,green,bottom,116,36,1,,,,1,36,116,27,2390.6717290830566,,,,,,,,,,,,,,,,bottom,,,,,,,,2390.6580021660193,2391.3388979160227,2391.3390610830393,2396.588525500032,2396.5950650410377,2397.8386369580403,2397.8403332080343,2399.855694833037,2399.857165416004,2400.7065022500465,mostlyred,FinalRedContrast,FinalGreenContrast,2400.7068802500144,2402.0060242080363,3,042226hb,001,2026-04-22_10h17.15.378,priming,,2026.1.3,59.95554294745488,2026-04-22 10h17.15.720211 -0700,
GR_Incongruent_RedCue_GreenProbe_Bottom,GreenGaborBoth.png,RedGaborBoth.png,GreenGaborDisappearBottom.png,RedGaborBoth.png,Red.mp3,red,bottom,117,37,1,,,,1,37,117,69,2402.0218133750022,,,,,,,,,,,,,,,,top,,,,,,,,2402.0077070000116,2410.3056627500337,2410.3058310410124,2415.5553380830097,2415.562049625034,2416.8053412080044,2416.80716908304,2418.8391402500565,2418.8404728330206,2421.056284375023,mostlyred,FinalRedContrast,FinalGreenContrast,2421.057203958044,2425.672905000043,3,042226hb,001,2026-04-22_10h17.15.378,priming,,2026.1.3,59.95554294745488,2026-04-22 10h17.15.720211 -0700,
GR_Incongruent_GreenCue_RedProbe_Top,GreenGaborBoth.png,RedGaborBoth.png,GreenGaborBoth.png,RedGaborDisappearTop.png,Green.mp3,green,top,118,38,1,,,,1,38,118,22,2425.6885432080016,,,,,,,,,,,,,,,,top,,,,,,,,2425.6748573330115,2426.305657500052,2426.3058259580284,2431.555304291018,2431.561966041045,2432.8053634160315,2432.806857291027,2433.5057203750475,2433.5070072910166,2435.5395256660413,mostlyred,FinalRedContrast,FinalGreenContrast,2435.5405402910546,2437.2563777910545,4,042226hb,001,2026-04-22_10h17.15.378,priming,,2026.1.3,59.95554294745488,2026-04-22 10h17.15.720211 -0700,
GR_Congruent_RedCue_RedProbe_Top,GreenGaborBoth.png,RedGaborBoth.png,GreenGaborBoth.png,RedGaborDisappearTop.png,Red.mp3,red,top,119,39,1,,,,1,39,119,40,2437.27201283304,,,,,,,,,,,,,,,,top,,,,,,,,2437.258246708021,2437.789167541021,2437.7893335830304,2443.0388582080486,2443.045421000046,2444.288866916031,2444.2902542910306,2446.0559012080193,2446.0573860830045,2446.9563710000366,allred,FinalRedContrast,FinalGreenContrast,2446.95667795802,2451.5231793750427,4,042226hb,001,2026-04-22_10h17.15.378,priming,,2026.1.3,59.95554294745488,2026-04-22 10h17.15.720211 -0700,
GR_Incongruent_RedCue_GreenProbe_Top,GreenGaborBoth.png,RedGaborBoth.png,GreenGaborDisappearTop.png,RedGaborBoth.png,Red.mp3,red,top,120,40,1,,,,1,40,120,12,2451.53875770804,,,,,,,,,,,,,,,,top,,,,,,,,2451.523280207999,2451.939043582999,2451.939209666045,2457.188793041045,2457.196391541045,2458.4387181250495,2458.4404315000284,2461.0225429160055,2461.024196875049,2462.089684458042,mostlyred,FinalRedContrast,FinalGreenContrast,2462.0908057910274,2464.222977416008,3,042226hb,001,2026-04-22_10h17.15.378,priming,,2026.1.3,59.95554294745488,2026-04-22 10h17.15.720211 -0700,
GR_Congruent_GreenCue_GreenProbe_Top,GreenGaborBoth.png,RedGaborBoth.png,GreenGaborDisappearTop.png,RedGaborBoth.png,Green.mp3,green,top,121,41,1,,,,1,41,121,50,2464.2387244580314,,,,,,,,,,,,,,,,top,,,,,,,,2464.2249352500075,2465.005796250014,2465.005959666043,2470.2556410000543,2470.2622006660094,2471.505605083017,2471.5074267080054,2474.2559572500177,2474.25743966602,2488.3898350410163,mostlyred,FinalRedContrast,FinalGreenContrast,2488.3908139160485,2490.423171791015,3,042226hb,001,2026-04-22_10h17.15.378,priming,,2026.1.3,59.95554294745488,2026-04-22 10h17.15.720211 -0700,
GR_Incongruent_GreenCue_RedProbe_Top,GreenGaborBoth.png,RedGaborBoth.png,GreenGaborBoth.png,RedGaborDisappearTop.png,Green.mp3,green,top,122,42,1,,,,1,42,122,30,2490.4388709160266,,,,,,,,,,,,,,,,top,,,,,,,,2490.423276791,2491.522616666043,2491.5227804580354,2496.7723027080065,2496.780017333047,2498.022296583047,2498.0235527080367,2499.5559905830305,2499.5572673330316,2501.0730558330542,mostlyred,FinalRedContrast,FinalGreenContrast,2501.0741387910093,2503.8566487080534,3,042226hb,001,2026-04-22_10h17.15.378,priming,,2026.1.3,59.95554294745488,2026-04-22 10h17.15.720211 -0700,
GR_Incongruent_GreenCue_RedProbe_Bottom,GreenGaborBoth.png,RedGaborBoth.png,GreenGaborBoth.png,RedGaborDisappearBottom.png,Green.mp3,green,bottom,123,43,1,,,,1,43,123,39,2503.8722444160376,,,,,,,,,,,,,,,,bottom,,,,,,,,2503.8567527500563,2505.022713250015,2505.022880500008,2510.27227479103,2510.279876416025,2511.5224268330494,2511.523859000008,2512.256143291015,2512.257469666016,2514.1067797910073,mostlyred,FinalRedContrast,FinalGreenContrast,2514.107114833023,2517.506829208054,4,042226hb,001,2026-04-22_10h17.15.378,priming,,2026.1.3,59.95554294745488,2026-04-22 10h17.15.720211 -0700,
GR_Congruent_RedCue_RedProbe_Top,GreenGaborBoth.png,RedGaborBoth.png,GreenGaborBoth.png,RedGaborDisappearTop.png,Red.mp3,red,top,124,44,1,,,,1,44,124,8,2517.5223246250534,,,,,,,,,,,,,,,,top,,,,,,,,2517.5084859580384,2518.3727695000125,2518.3729368750355,2523.6223918750184,2523.628930833016,2524.872414375015,2524.8743483330472,2525.7728802910424,2525.7744933750364,2529.8065742080216,evensplit,FinalRedContrast,FinalGreenContrast,2529.8076037080027,2540.8567161250394,3,042226hb,001,2026-04-22_10h17.15.378,priming,,2026.1.3,59.95554294745488,2026-04-22 10h17.15.720211 -0700,
GR_Incongruent_GreenCue_RedProbe_Top,GreenGaborBoth.png,RedGaborBoth.png,GreenGaborBoth.png,RedGaborDisappearTop.png,Green.mp3,green,top,125,45,1,,,,1,45,125,14,2540.872501875041,,,,,,,,,,,,,,,,top,,,,,,,,2540.8587835410144,2541.673215540999,2541.6733867500443,2546.9225192910526,2546.9291329160333,2548.1726518750074,2548.174122291035,2549.0396655000513,2549.041113000014,2551.0067309160368,mostlyred,FinalRedContrast,FinalGreenContrast,2551.0075165830203,2552.106833208003,3,042226hb,001,2026-04-22_10h17.15.378,priming,,2026.1.3,59.95554294745488,2026-04-22 10h17.15.720211 -0700,
GR_Incongruent_RedCue_GreenProbe_Top,GreenGaborBoth.png,RedGaborBoth.png,GreenGaborDisappearTop.png,RedGaborBoth.png,Red.mp3,red,top,126,46,1,,,,1,46,126,20,2552.122492333001,,,,,,,,,,,,,,,,top,,,,,,,,2552.1084727080306,2552.956123333017,2552.956288333051,2558.2058600830496,2558.212331458053,2559.455905666051,2559.45755583304,2560.8733737080474,2560.8742216660175,2561.906798791024,mostlyred,FinalRedContrast,FinalGreenContrast,2561.9071608330123,2563.34010583302,4,042226hb,001,2026-04-22_10h17.15.378,priming,,2026.1.3,59.95554294745488,2026-04-22 10h17.15.720211 -0700,
GR_Congruent_GreenCue_GreenProbe_Bottom,GreenGaborBoth.png,RedGaborBoth.png,GreenGaborDisappearBottom.png,RedGaborBoth.png,Green.mp3,green,bottom,127,47,1,,,,1,47,127,19,2563.355908041005,,,,,,,,,,,,,,,,bottom,,,,,,,,2563.3420432500425,2564.039466416056,2564.039630125044,2569.289264541003,2569.296281583025,2570.539351958025,2570.540567250049,2571.2396950830007,2571.2407497910317,2573.2568817080464,mostlyred,FinalRedContrast,FinalGreenContrast,2573.2574112080038,2574.6905372500187,4,042226hb,001,2026-04-22_10h17.15.378,priming,,2026.1.3,59.95554294745488,2026-04-22 10h17.15.720211 -0700,
RR_non_riv_catch_RedCue_RedProbe_Top,Blank.png,RedGaborBoth.png,Blank.png,RedGaborDisappearTop.png,Red.mp3,red,top,128,48,1,,,,1,48,128,72,2574.705966416048,,,,,,,,,,,,,,,,top,,,,,,,,2574.6921836250112,2575.1564422500087,2575.156611500017,2580.4059466660256,2580.412783458014,2581.6560551250004,2581.6579287500354,2582.2063796660514,2582.2075629580067,2585.8235081250314,mostlyred,FinalRedContrast,FinalGreenContrast,2585.824095250049,2587.4234984580544,4,042226hb,001,2026-04-22_10h17.15.378,priming,,2026.1.3,59.95554294745488,2026-04-22 10h17.15.720211 -0700,
GR_Incongruent_GreenCue_RedProbe_Bottom,GreenGaborBoth.png,RedGaborBoth.png,GreenGaborBoth.png,RedGaborDisappearBottom.png,Green.mp3,green,bottom,129,49,1,,,,1,49,129,15,2587.4391651660553,,,,,,,,,,,,,,,,bottom,,,,,,,,2587.425514875038,2588.3896178750438,2588.389780166035,2593.6393163330504,2593.64740091603,2594.889385333052,2594.8909444580204,2596.1231560410233,2596.1238948750542,2601.390088416054,evensplit,FinalRedContrast,FinalGreenContrast,2601.391252833011,2603.0569088750053,3,042226hb,001,2026-04-22_10h17.15.378,priming,,2026.1.3,59.95554294745488,2026-04-22 10h17.15.720211 -0700,
GR_Congruent_GreenCue_GreenProbe_Top,GreenGaborBoth.png,RedGaborBoth.png,GreenGaborDisappearTop.png,RedGaborBoth.png,Green.mp3,green,top,130,50,1,,,,1,50,130,42,2603.072704500053,,,,,,,,,,,,,,,,top,,,,,,,,2603.0570153750014,2620.2397923750104,2620.239956666017,2625.4893712080084,2625.497080125031,2626.739452333015,2626.741337500047,2627.5065467500244,2627.50817729102,2629.00685408304,evensplit,FinalRedContrast,FinalGreenContrast,2629.0080370409996,2630.0902702910244,3,042226hb,001,2026-04-22_10h17.15.378,priming,,2026.1.3,59.95554294745488,2026-04-22 10h17.15.720211 -0700,
GR_Incongruent_GreenCue_RedProbe_Bottom,GreenGaborBoth.png,RedGaborBoth.png,GreenGaborBoth.png,RedGaborDisappearBottom.png,Green.mp3,green,bottom,131,51,1,,,,1,51,131,55,2630.1061030830024,,,,,,,,,,,,,,,,bottom,,,,,,,,2630.0903737910558,2631.1565549160005,2631.156720375002,2636.406204125029,2636.413826166012,2637.6562658330076,2637.657713875,2638.2899830830283,2638.291488583025,2640.857059083006,evensplit,FinalRedContrast,FinalGreenContrast,2640.8582871660474,2642.223747125012,3,042226hb,001,2026-04-22_10h17.15.378,priming,,2026.1.3,59.95554294745488,2026-04-22 10h17.15.720211 -0700,
GR_Congruent_RedCue_RedProbe_Top,GreenGaborBoth.png,RedGaborBoth.png,GreenGaborBoth.png,RedGaborDisappearTop.png,Red.mp3,red,top,132,52,1,,,,1,52,132,56,2642.239466875035,,,,,,,,,,,,,,,,top,,,,,,,,2642.225620958023,2642.9732495410135,2642.9734142500092,2648.222903583024,2648.230542000034,2649.4729601250147,2649.4744918330107,2650.1233981660334,2650.1249179160222,2651.273781958036,evensplit,FinalRedContrast,FinalGreenContrast,2651.274798041035,2652.6741571250022,4,042226hb,001,2026-04-22_10h17.15.378,priming,,2026.1.3,59.95554294745488,2026-04-22 10h17.15.720211 -0700,
GR_Congruent_GreenCue_GreenProbe_Bottom,GreenGaborBoth.png,RedGaborBoth.png,GreenGaborDisappearBottom.png,RedGaborBoth.png,Green.mp3,green,bottom,133,53,1,,,,1,53,133,51,2652.6895322910277,,,,,,,,,,,,,,,,bottom,,,,,,,,2652.676085041021,2653.323234500014,2653.3234033750487,2658.5728966250317,2658.5804844580125,2659.822844750015,2659.824600333057,2661.2066042080405,2661.2079010000452,2662.923804083024,evensplit,FinalRedContrast,FinalGreenContrast,2662.9240940000163,2664.3904645830044,4,042226hb,001,2026-04-22_10h17.15.378,priming,,2026.1.3,59.95554294745488,2026-04-22 10h17.15.720211 -0700,
GR_Congruent_RedCue_RedProbe_Bottom,GreenGaborBoth.png,RedGaborBoth.png,GreenGaborBoth.png,RedGaborDisappearBottom.png,Red.mp3,red,bottom,134,54,1,,,,1,54,134,17,2664.4061690410017,,,,,,,,,,,,,,,,bottom,,,,,,,,2664.3922062500496,2664.956478958018,2664.956641625031,2670.2063810830005,2670.2129449580098,2671.456368791056,2671.4579497080413,2672.823458583036,2672.8248472500127,2675.3072293330333,evensplit,FinalRedContrast,FinalGreenContrast,2675.307739083015,2676.440456375014,3,042226hb,001,2026-04-22_10h17.15.378,priming,,2026.1.3,59.95554294745488,2026-04-22 10h17.15.720211 -0700,
GR_Incongruent_GreenCue_RedProbe_Top,GreenGaborBoth.png,RedGaborBoth.png,GreenGaborBoth.png,RedGaborDisappearTop.png,Green.mp3,green,top,135,55,1,,,,1,55,135,70,2676.4563112910255,,,,,,,,,,,,,,,,top,,,,,,,,2676.4425590830506,2690.0733305000467,2690.0734947910532,2695.3229582080385,2695.329504416033,2696.5730195410433,2696.5747747500427,2697.9068597910227,2697.907535166014,2699.3072985000326,mostlyred,FinalRedContrast,FinalGreenContrast,2699.3075976660475,2700.9239226659993,4,042226hb,001,2026-04-22_10h17.15.378,priming,,2026.1.3,59.95554294745488,2026-04-22 10h17.15.720211 -0700,
GR_Incongruent_GreenCue_RedProbe_Bottom,GreenGaborBoth.png,RedGaborBoth.png,GreenGaborBoth.png,RedGaborDisappearBottom.png,Green.mp3,green,bottom,136,56,1,,,,1,56,136,23,2700.9396820830298,,,,,,,,,,,,,,,,bottom,,,,,,,,2700.9240335000213,2701.390077750024,2701.390240291017,2706.6398531250306,2706.6474453330156,2707.8899019580567,2707.8914525000146,2708.506909583055,2708.508051208046,2709.074360208004,evensplit,FinalRedContrast,FinalGreenContrast,2709.074632291042,2710.224057583022,4,042226hb,001,2026-04-22_10h17.15.378,priming,,2026.1.3,59.95554294745488,2026-04-22 10h17.15.720211 -0700,
