label,LstartingStim,RstartingStim,LvisualStim,RvisualStim,audioCue,visualCue,probe_loc,thisN,thisTrialN,thisRepN,staircase.thisTrialN,staircase.stepSize,staircase.intensity,trials.thisRepN,trials.thisTrialN,trials.thisN,trials.thisIndex,thisRow.t,notes,piloting,stim offset,continue_resp.keys,continue_resp.rt,continue_resp.duration,fixation.started,fixation.stopped,greenContrast,redContrast,adjusted_contrast.started,adjusted_contrast.stopped,staircase_response.started,staircase_response.stopped,stair_response,probe_response,staircase.response,prevTrial,isRed,isReversal,cumReversal,contrastArray,contrastAverage,start_trial.started,start_trial.stopped,cue.started,cue.stopped,probe.started,probe.stopped,probe_response.started,probe_response.stopped,subjective_response.started,subjective_response.stopped,subj_response,RedContrast,GreenContrast,vividness_response.started,vividness_response.stopped,vivid_response,participant,session,date,expName,expVersion,psychopyVersion,frameRate,expStart,
,,,,,,,,,,,,,,,,,,,,False,0.355,,,,,,,,,,,,,,,,,,,,,,,,,,,,,,,,,,,,,050526hf,001,2026-05-05_12h22.14.027,priming,,2026.1.3,60.0001049974908,2026-05-05 12h22.14.544040 -0700,
,,,,,,,,,,,,,,,,,,,,,,space,31.804011500033084,None,,,,,,,,,,,,,,,,,,,,,,,,,,,,,,,,,,050526hf,001,2026-05-05_12h22.14.027,priming,,2026.1.3,60.0001049974908,2026-05-05 12h22.14.544040 -0700,
,,,,,,,,,,,0,0.2,0.5,,,,,58.26882720796857,,,,,,,58.25294412497897,59.252268915995955,0.5,0.5,59.2584800409968,61.00222525000572,61.00810887501575,64.95306295802584,mostlyred,red,1,1000,1,0,0,[],0,,,,,,,,,,,,,,,,,050526hf,001,2026-05-05_12h22.14.027,priming,,2026.1.3,60.0001049974908,2026-05-05 12h22.14.544040 -0700,
,,,,,,,,,,,1,0.1,0.3,,,,,64.96881112497067,,,,,,,64.95333379099611,65.95213920797687,0.7,0.3,65.95562387502287,67.7021845409763,67.70381887501571,71.06962675001705,allgreen,green,0,1,0,1,1,[],0,,,,,,,,,,,,,,,,,050526hf,001,2026-05-05_12h22.14.027,priming,,2026.1.3,60.0001049974908,2026-05-05 12h22.14.544040 -0700,
,,,,,,,,,,,2,0.1,0.4,,,,,71.08553079102421,,,,,,,71.06989829102531,72.06893370801117,0.6,0.4,72.07245724997483,73.81906408298528,73.8209669580101,75.80310987500707,allgreen,green,0,0,0,0,1,[],0,,,,,,,,,,,,,,,,,050526hf,001,2026-05-05_12h22.14.027,priming,,2026.1.3,60.0001049974908,2026-05-05 12h22.14.544040 -0700,
,,,,,,,,,,,3,0.1,0.5,,,,,75.81898325000657,,,,,,,75.80343637499027,76.80234016600298,0.5,0.5,76.80588254099712,78.55233095801668,78.55417833296815,80.51968291599769,allgreen,green,0,0,0,0,1,[],0,,,,,,,,,,,,,,,,,050526hf,001,2026-05-05_12h22.14.027,priming,,2026.1.3,60.0001049974908,2026-05-05 12h22.14.544040 -0700,
,,,,,,,,,,,4,0.1,0.6,,,,,80.53563699999359,,,,,,,80.51992708299076,81.51906008302467,0.4,0.6,81.52257612498943,83.26905000000261,83.27044266602024,85.28634579101345,allgreen,green,0,0,0,0,1,[],0,,,,,,,,,,,,,,,,,050526hf,001,2026-05-05_12h22.14.027,priming,,2026.1.3,60.0001049974908,2026-05-05 12h22.14.544040 -0700,
,,,,,,,,,,,5,0.1,0.7,,,,,85.30219783302164,,,,,,,85.28659679100383,86.28567870799452,0.30000000000000004,0.7,86.28920420800569,88.0357829160057,88.03729941596976,89.43642970797373,allgreen,green,0,0,0,0,1,[],0,,,,,,,,,,,,,,,,,050526hf,001,2026-05-05_12h22.14.027,priming,,2026.1.3,60.0001049974908,2026-05-05 12h22.14.544040 -0700,
,,,,,,,,,,,6,0.1,0.7999999999999999,,,,,89.45229566597845,,,,,,,89.43673787498847,90.43569883302553,0.20000000000000007,0.7999999999999999,90.43921983300243,92.18557370797498,92.18710812501376,94.65308808302507,mostlyred,red,1,0,1,1,2,[],0,,,,,,,,,,,,,,,,,050526hf,001,2026-05-05_12h22.14.027,priming,,2026.1.3,60.0001049974908,2026-05-05 12h22.14.544040 -0700,
,,,,,,,,,,,7,0.05,0.7,,,,,94.66902962501626,,,,,,,94.65333470801124,95.65240795799764,0.30000000000000004,0.7,95.65589766600169,97.40239483298501,97.40395916602574,98.570174457971,mostlygreen,green,0,1,0,1,3,[],0,,,,,,,,,,,,,,,,,050526hf,001,2026-05-05_12h22.14.027,priming,,2026.1.3,60.0001049974908,2026-05-05 12h22.14.544040 -0700,
,,,,,,,,,,,8,0.05,0.75,,,,,98.5856374159921,,,,,,,98.57043341599638,99.56896075000986,0.25,0.75,99.57242974999826,101.31895895797061,101.32077749999007,103.51982345798751,mostlyred,red,1,0,1,1,4,[],0,,,,,,,,,,,,,,,,,050526hf,001,2026-05-05_12h22.14.027,priming,,2026.1.3,60.0001049974908,2026-05-05 12h22.14.544040 -0700,
,,,,,,,,,,,9,0.025,0.7,,,,,103.53575308300788,,,,,,,103.52014358300949,104.51918454101542,0.30000000000000004,0.7,104.52267541602487,106.26913912501186,106.27053787501063,107.13658258301439,mostlygreen,green,0,1,0,1,5,[],0,,,,,,,,,,,,,,,,,050526hf,001,2026-05-05_12h22.14.027,priming,,2026.1.3,60.0001049974908,2026-05-05 12h22.14.544040 -0700,
,,,,,,,,,,,10,0.025,0.725,,,,,107.15239620802458,,,,,,,107.13688120798906,108.13579733297229,0.275,0.725,108.13920854101889,109.88577108300524,109.88751595799113,110.63655808300246,mostlygreen,green,0,0,0,0,5,[],0,,,,,,,,,,,,,,,,,050526hf,001,2026-05-05_12h22.14.027,priming,,2026.1.3,60.0001049974908,2026-05-05 12h22.14.544040 -0700,
,,,,,,,,,,,11,0.025,0.75,,,,,110.65245837497059,,,,,,,110.6368677499704,111.63569920801092,0.25,0.75,111.63908624998294,113.38583441602532,113.38755562499864,115.66984366602264,mostlygreen,green,0,0,0,0,5,[],0,,,,,,,,,,,,,,,,,050526hf,001,2026-05-05_12h22.14.027,priming,,2026.1.3,60.0001049974908,2026-05-05 12h22.14.544040 -0700,
,,,,,,,,,,,12,0.025,0.775,,,,,115.68574291601544,,,,,,,115.67009691597195,116.66918154101586,0.22499999999999998,0.775,116.67266841599485,118.41909412498353,118.42093479097821,122.00314804102527,mostlyred,red,1,0,1,1,6,[0.775],0.775,,,,,,,,,,,,,,,,,050526hf,001,2026-05-05_12h22.14.027,priming,,2026.1.3,60.0001049974908,2026-05-05 12h22.14.544040 -0700,
,,,,,,,,,,,13,0.025,0.75,,,,,122.0191087910207,,,,,,,122.00339641602477,123.0025458749733,0.25,0.75,123.00600462500006,124.75247495801887,124.7539159579901,125.52025341597619,mostlyred,red,1,1,1,0,6,[0.775],0.775,,,,,,,,,,,,,,,,,050526hf,001,2026-05-05_12h22.14.027,priming,,2026.1.3,60.0001049974908,2026-05-05 12h22.14.544040 -0700,
,,,,,,,,,,,14,0.025,0.725,,,,,125.53582212497713,,,,,,,125.52053312497446,126.51923220802564,0.275,0.725,126.52305945800617,128.26920708297985,128.2705982499756,130.35311337502208,mostlyred,red,1,1,1,0,6,[0.775],0.775,,,,,,,,,,,,,,,,,050526hf,001,2026-05-05_12h22.14.027,priming,,2026.1.3,60.0001049974908,2026-05-05 12h22.14.544040 -0700,
,,,,,,,,,,,15,0.025,0.7,,,,,130.36900904099457,,,,,,,130.35337862500455,131.3526292910101,0.30000000000000004,0.7,131.35620187502354,133.1025896249921,133.10454945801757,135.36987624998437,mostlyred,red,1,1,1,0,6,[0.775],0.775,,,,,,,,,,,,,,,,,050526hf,001,2026-05-05_12h22.14.027,priming,,2026.1.3,60.0001049974908,2026-05-05 12h22.14.544040 -0700,
,,,,,,,,,,,16,0.025,0.6749999999999999,,,,,135.38587100000586,,,,,,,135.3701213329914,136.36929570802022,0.32500000000000007,0.6749999999999999,136.37274833297124,138.1192586250254,138.12088783300715,139.63662829098757,mostlygreen,green,0,1,0,1,7,"[0.775, 0.6749999999999999]",0.725,,,,,,,,,,,,,,,,,050526hf,001,2026-05-05_12h22.14.027,priming,,2026.1.3,60.0001049974908,2026-05-05 12h22.14.544040 -0700,
,,,,,,,,,,,17,0.025,0.7,,,,,139.6525254159933,,,,,,,139.63695050001843,140.63583804102382,0.30000000000000004,0.7,140.63935429102276,142.38585045799846,142.38733533298364,143.83657104097074,mostlygreen,green,0,0,0,0,7,"[0.775, 0.6749999999999999]",0.725,,,,,,,,,,,,,,,,,050526hf,001,2026-05-05_12h22.14.027,priming,,2026.1.3,60.0001049974908,2026-05-05 12h22.14.544040 -0700,
,,,,,,,,,,,18,0.025,0.725,,,,,143.85248166602105,,,,,,,143.83681766601512,144.8359455000027,0.275,0.725,144.83942037500674,146.58597316598753,146.58791912498418,147.98655691597378,mostlyred,red,1,0,1,1,8,"[0.775, 0.6749999999999999, 0.725]",0.725,,,,,,,,,,,,,,,,,050526hf,001,2026-05-05_12h22.14.027,priming,,2026.1.3,60.0001049974908,2026-05-05 12h22.14.544040 -0700,
,,,,,,,,,,,19,0.025,0.7,,,,,148.00249975000042,,,,,,,147.9868249159772,148.98587466601748,0.30000000000000004,0.7,148.98941908299457,150.73589562502457,150.73762166599045,152.8867068749969,mostlyred,red,1,1,1,0,8,"[0.775, 0.6749999999999999, 0.725]",0.725,,,,,,,,,,,,,,,,,050526hf,001,2026-05-05_12h22.14.027,priming,,2026.1.3,60.0001049974908,2026-05-05 12h22.14.544040 -0700,
,,,,,,,,,,,20,0.025,0.6749999999999999,,,,,152.90242699999362,,,,,,,152.88699654099764,153.88594554096926,0.32500000000000007,0.6749999999999999,153.88943583297078,155.63587616599398,155.63744712498737,157.66998750000494,mostlygreen,green,0,1,0,1,9,"[0.775, 0.6749999999999999, 0.725, 0.6749999999999999]",0.7124999999999999,,,,,,,,,,,,,,,,,050526hf,001,2026-05-05_12h22.14.027,priming,,2026.1.3,60.0001049974908,2026-05-05 12h22.14.544040 -0700,
,,,,,,,,,,,21,0.025,0.7,,,,,157.68584616598673,,,,,,,157.67023620801046,158.6693344580126,0.30000000000000004,0.7,158.6727471660124,160.41930245800177,160.42069783300394,161.03665845800424,mostlygreen,green,0,0,0,0,9,"[0.775, 0.6749999999999999, 0.725, 0.6749999999999999]",0.7124999999999999,,,,,,,,,,,,,,,,,050526hf,001,2026-05-05_12h22.14.027,priming,,2026.1.3,60.0001049974908,2026-05-05 12h22.14.544040 -0700,
,,,,,,,,,,,22,0.025,0.725,,,,,161.05248404102167,,,,,,,161.0369023749954,162.0361768329749,0.275,0.725,162.03960720798932,163.7859963750234,163.78780754102627,165.3367646249826,mostlygreen,green,0,0,0,0,9,"[0.775, 0.6749999999999999, 0.725, 0.6749999999999999]",0.7124999999999999,,,,,,,,,,,,,,,,,050526hf,001,2026-05-05_12h22.14.027,priming,,2026.1.3,60.0001049974908,2026-05-05 12h22.14.544040 -0700,
,,,,,,,,,,,23,0.025,0.75,,,,,165.35267229098827,,,,,,,165.3370148750255,166.33596716600005,0.25,0.75,166.33938070799923,168.0861046659993,168.0874171250034,169.12013200001093,mostlyred,red,1,0,1,1,10,"[0.775, 0.6749999999999999, 0.725, 0.6749999999999999, 0.75]",0.72,,,,,,,,,,,,,,,,,050526hf,001,2026-05-05_12h22.14.027,priming,,2026.1.3,60.0001049974908,2026-05-05 12h22.14.544040 -0700,
,,,,,,,,,,,24,0.025,0.725,,,,,169.13599283300573,,,,,,,169.12038504099473,170.11939175002044,0.275,0.725,170.12289566599065,171.86938774998998,171.87115087499842,172.6201390409842,mostlyred,green,0,1,0,1,11,"[0.775, 0.6749999999999999, 0.725, 0.6749999999999999, 0.75, 0.725]",0.7208333333333332,,,,,,,,,,,,,,,,,050526hf,001,2026-05-05_12h22.14.027,priming,,2026.1.3,60.0001049974908,2026-05-05 12h22.14.544040 -0700,
,,,,,,,,,,,25,0.025,0.75,,,,,172.63601083296817,,,,,,,172.62038962502265,173.61933933297405,0.25,0.75,173.62277979101054,175.36940991599113,175.37108445802005,177.9034010830219,mostlyred,red,1,0,1,1,12,"[0.775, 0.6749999999999999, 0.725, 0.6749999999999999, 0.75, 0.725, 0.75]",0.7249999999999999,,,,,,,,,,,,,,,,,050526hf,001,2026-05-05_12h22.14.027,priming,,2026.1.3,60.0001049974908,2026-05-05 12h22.14.544040 -0700,
,,,,,,,,,,,26,0.025,0.725,,,,,177.91938133299118,,,,,,,177.90365133300656,178.90278258296894,0.275,0.725,178.9062662079814,180.65272000001278,180.6546872080071,181.20344137499342,mostlyred,red,1,1,1,0,12,"[0.775, 0.6749999999999999, 0.725, 0.6749999999999999, 0.75, 0.725, 0.75]",0.7249999999999999,,,,,,,,,,,,,,,,,050526hf,001,2026-05-05_12h22.14.027,priming,,2026.1.3,60.0001049974908,2026-05-05 12h22.14.544040 -0700,
,,,,,,,,,,,27,0.025,0.7,,,,,181.21937920799246,,,,,,,181.2037506250199,182.20274554099888,0.30000000000000004,0.7,182.20621462498093,183.95278458297253,183.95456362498226,186.65342087502358,mostlyred,red,1,1,1,0,12,"[0.775, 0.6749999999999999, 0.725, 0.6749999999999999, 0.75, 0.725, 0.75]",0.7249999999999999,,,,,,,,,,,,,,,,,050526hf,001,2026-05-05_12h22.14.027,priming,,2026.1.3,60.0001049974908,2026-05-05 12h22.14.544040 -0700,
,,,,,,,,,,,28,0.025,0.6749999999999999,,,,,186.66925450001145,,,,,,,186.65372483298415,187.65264008298982,0.32500000000000007,0.6749999999999999,187.65621049999027,189.40265483298572,189.4047777079977,191.78682412498165,mostlyred,red,1,1,1,0,12,"[0.775, 0.6749999999999999, 0.725, 0.6749999999999999, 0.75, 0.725, 0.75]",0.7249999999999999,,,,,,,,,,,,,,,,,050526hf,001,2026-05-05_12h22.14.027,priming,,2026.1.3,60.0001049974908,2026-05-05 12h22.14.544040 -0700,
,,,,,,,,,,,29,0.025,0.6499999999999999,,,,,191.80262258299626,,,,,,,191.787073665997,192.78618075000122,0.3500000000000001,0.6499999999999999,192.7896460830234,194.53622229100438,194.53773204097524,195.83682008297183,mostlyred,red,1,1,1,0,12,"[0.775, 0.6749999999999999, 0.725, 0.6749999999999999, 0.75, 0.725, 0.75]",0.7249999999999999,,,,,,,,,,,,,,,,,050526hf,001,2026-05-05_12h22.14.027,priming,,2026.1.3,60.0001049974908,2026-05-05 12h22.14.544040 -0700,
,,,,,,,,,,,30,0.025,0.6249999999999999,,,,,195.8528147499892,,,,,,,195.8371020409977,196.83609616599279,0.3750000000000001,0.6249999999999999,196.8396398749901,198.58621583296917,198.58792820799863,199.9369101250195,mostlygreen,green,0,1,0,1,13,"[0.775, 0.6749999999999999, 0.725, 0.6749999999999999, 0.75, 0.725, 0.75, 0.6249999999999999]",0.7124999999999999,,,,,,,,,,,,,,,,,050526hf,001,2026-05-05_12h22.14.027,priming,,2026.1.3,60.0001049974908,2026-05-05 12h22.14.544040 -0700,
,,,,,,,,,,,31,0.025,0.6499999999999999,,,,,199.95277883298695,,,,,,,199.9371662500198,200.93615675001638,0.3500000000000001,0.6499999999999999,200.93971941596828,202.6861929160077,202.688375541009,204.37016812502407,mostlyred,red,1,0,1,1,14,"[0.775, 0.6749999999999999, 0.725, 0.6749999999999999, 0.75, 0.725, 0.75, 0.6249999999999999, 0.6499999999999999]",0.7055555555555555,,,,,,,,,,,,,,,,,050526hf,001,2026-05-05_12h22.14.027,priming,,2026.1.3,60.0001049974908,2026-05-05 12h22.14.544040 -0700,
,,,,,,,,,,,32,0.025,0.6249999999999999,,,,,204.38611966598546,,,,,,,204.3704180829809,205.36956487497082,0.3750000000000001,0.6249999999999999,205.37305004097288,207.11956429097336,207.12161191599444,207.9868713329779,mostlygreen,green,0,1,0,1,15,"[0.775, 0.6749999999999999, 0.725, 0.6749999999999999, 0.75, 0.725, 0.75, 0.6249999999999999, 0.6499999999999999, 0.6249999999999999]",0.6975,,,,,,,,,,,,,,,,,050526hf,001,2026-05-05_12h22.14.027,priming,,2026.1.3,60.0001049974908,2026-05-05 12h22.14.544040 -0700,
,,,,,,,,,,,33,0.025,0.6499999999999999,,,,,208.0028235409991,,,,,,,207.9871206660173,208.98622312501539,0.3500000000000001,0.6499999999999999,208.98964033299126,210.7363122079987,210.73762500000885,213.6869283330161,mostlyred,red,1,0,1,1,16,"[0.775, 0.6749999999999999, 0.725, 0.6749999999999999, 0.75, 0.725, 0.75, 0.6249999999999999, 0.6499999999999999, 0.6249999999999999, 0.6499999999999999]",0.6931818181818182,,,,,,,,,,,,,,,,,050526hf,001,2026-05-05_12h22.14.027,priming,,2026.1.3,60.0001049974908,2026-05-05 12h22.14.544040 -0700,
,,,,,,,,,,,34,0.025,0.6249999999999999,,,,,213.70284099999117,,,,,,,213.6872524159844,214.6862052080105,0.3750000000000001,0.6249999999999999,214.68967624998186,216.4362274580053,216.43797149998136,217.4367945829872,mostlygreen,green,0,1,0,1,17,"[0.775, 0.6749999999999999, 0.725, 0.6749999999999999, 0.75, 0.725, 0.75, 0.6249999999999999, 0.6499999999999999, 0.6249999999999999, 0.6499999999999999, 0.6249999999999999]",0.6875,,,,,,,,,,,,,,,,,050526hf,001,2026-05-05_12h22.14.027,priming,,2026.1.3,60.0001049974908,2026-05-05 12h22.14.544040 -0700,
,,,,,,,,,,,35,0.025,0.6499999999999999,,,,,217.4526616659714,,,,,,,217.43706579098944,218.43622079101624,0.3500000000000001,0.6499999999999999,218.43971716600936,220.18616562499665,220.18782499997178,221.3368156659999,mostlygreen,green,0,0,0,0,17,"[0.775, 0.6749999999999999, 0.725, 0.6749999999999999, 0.75, 0.725, 0.75, 0.6249999999999999, 0.6499999999999999, 0.6249999999999999, 0.6499999999999999, 0.6249999999999999]",0.6875,,,,,,,,,,,,,,,,,050526hf,001,2026-05-05_12h22.14.027,priming,,2026.1.3,60.0001049974908,2026-05-05 12h22.14.544040 -0700,
,,,,,,,,,,,36,0.025,0.6749999999999999,,,,,221.3528664999758,,,,,,,221.337064500025,222.33618516597198,0.32500000000000007,0.6749999999999999,222.3397845000145,224.0862393329735,224.08767212502426,225.27038262499264,mostlygreen,green,0,0,0,0,17,"[0.775, 0.6749999999999999, 0.725, 0.6749999999999999, 0.75, 0.725, 0.75, 0.6249999999999999, 0.6499999999999999, 0.6249999999999999, 0.6499999999999999, 0.6249999999999999]",0.6875,,,,,,,,,,,,,,,,,050526hf,001,2026-05-05_12h22.14.027,priming,,2026.1.3,60.0001049974908,2026-05-05 12h22.14.544040 -0700,
,,,,,,,,,,,37,0.025,0.7,,,,,225.28631237498485,,,,,,,225.27063254098175,226.26952720800182,0.30000000000000004,0.7,226.2730551660061,228.0196457079728,228.02164991601603,228.98703208297957,mostlygreen,green,0,0,0,0,17,"[0.775, 0.6749999999999999, 0.725, 0.6749999999999999, 0.75, 0.725, 0.75, 0.6249999999999999, 0.6499999999999999, 0.6249999999999999, 0.6499999999999999, 0.6249999999999999]",0.6875,,,,,,,,,,,,,,,,,050526hf,001,2026-05-05_12h22.14.027,priming,,2026.1.3,60.0001049974908,2026-05-05 12h22.14.544040 -0700,
,,,,,,,,,,,38,0.025,0.725,,,,,229.00292783300392,,,,,,,228.98736654099775,229.98631604097318,0.275,0.725,229.9897889160202,231.73622666602023,231.73813791602151,232.8703462909907,mostlygreen,green,0,0,0,0,17,"[0.775, 0.6749999999999999, 0.725, 0.6749999999999999, 0.75, 0.725, 0.75, 0.6249999999999999, 0.6499999999999999, 0.6249999999999999, 0.6499999999999999, 0.6249999999999999]",0.6875,,,,,,,,,,,,,,,,,050526hf,001,2026-05-05_12h22.14.027,priming,,2026.1.3,60.0001049974908,2026-05-05 12h22.14.544040 -0700,
,,,,,,,,,,,39,0.025,0.75,,,,,232.88630000001285,,,,,,,232.87059379101265,233.8696738749859,0.25,0.75,233.87309800001094,235.61967191600706,235.62135254096938,236.65370695799356,mostlyred,red,1,0,1,1,18,"[0.775, 0.6749999999999999, 0.725, 0.6749999999999999, 0.75, 0.725, 0.75, 0.6249999999999999, 0.6499999999999999, 0.6249999999999999, 0.6499999999999999, 0.6249999999999999, 0.75]",0.6923076923076923,,,,,,,,,,,,,,,,,050526hf,001,2026-05-05_12h22.14.027,priming,,2026.1.3,60.0001049974908,2026-05-05 12h22.14.544040 -0700,
,,,,,,,,,,,40,0.025,0.725,,,,,236.66963804099942,,,,,,,236.65395695797633,237.65302299999166,0.275,0.725,237.65649466600735,239.40300366602605,239.4047815829981,241.4037309580017,mostlygreen,green,0,1,0,1,19,"[0.775, 0.6749999999999999, 0.725, 0.6749999999999999, 0.75, 0.725, 0.75, 0.6249999999999999, 0.6499999999999999, 0.6249999999999999, 0.6499999999999999, 0.6249999999999999, 0.75, 0.725]",0.6946428571428571,,,,,,,,,,,,,,,,,050526hf,001,2026-05-05_12h22.14.027,priming,,2026.1.3,60.0001049974908,2026-05-05 12h22.14.544040 -0700,
,,,,,,,,,,,41,0.025,0.75,,,,,241.4196394580067,,,,,,,241.40403120801784,242.4030090830056,0.25,0.75,242.40649570798269,244.15303695801413,244.15472866600612,245.35364024998853,mostlygreen,green,0,0,0,0,19,"[0.775, 0.6749999999999999, 0.725, 0.6749999999999999, 0.75, 0.725, 0.75, 0.6249999999999999, 0.6499999999999999, 0.6249999999999999, 0.6499999999999999, 0.6249999999999999, 0.75, 0.725]",0.6946428571428571,,,,,,,,,,,,,,,,,050526hf,001,2026-05-05_12h22.14.027,priming,,2026.1.3,60.0001049974908,2026-05-05 12h22.14.544040 -0700,
,,,,,,,,,,,42,0.025,0.775,,,,,245.36963575001573,,,,,,,245.35388966597384,246.35307520802598,0.22499999999999998,0.775,246.35660512500908,248.10301179101225,248.1050501660211,250.02038175001508,mostlyred,red,1,0,1,1,20,"[0.775, 0.6749999999999999, 0.725, 0.6749999999999999, 0.75, 0.725, 0.75, 0.6249999999999999, 0.6499999999999999, 0.6249999999999999, 0.6499999999999999, 0.6249999999999999, 0.75, 0.725, 0.775]",0.7,,,,,,,,,,,,,,,,,050526hf,001,2026-05-05_12h22.14.027,priming,,2026.1.3,60.0001049974908,2026-05-05 12h22.14.544040 -0700,
,,,,,,,,,,,,,,,,,,,,,,space,103.52134050003951,None,,,,,,,,,,,,,,,,,,,,,,,,,,,,,,,,,,050526hf,001,2026-05-05_12h22.14.027,priming,,2026.1.3,60.0001049974908,2026-05-05 12h22.14.544040 -0700,
GR_Incongruent_GreenCue_RedProbe_Top,GreenGaborBoth.png,RedGaborBoth.png,GreenGaborBoth.png,RedGaborDisappearTop.png,Green.mp3,green,top,0,0,0,,,,0,0,0,54,353.6536103329854,,,,,,,,,,,,,,,,top,,,,,,,,353.63481650000904,356.38716937502613,356.3873502499773,361.63684562500566,361.64665162499296,362.88679654098814,362.8888774579973,366.93734125001356,366.938398749975,372.7380931659718,mostlygreen,FinalRedContrast,FinalGreenContrast,372.73854529100936,377.13791845797095,2,050526hf,001,2026-05-05_12h22.14.027,priming,,2026.1.3,60.0001049974908,2026-05-05 12h22.14.544040 -0700,
GR_Incongruent_RedCue_GreenProbe_Bottom,GreenGaborBoth.png,RedGaborBoth.png,GreenGaborDisappearBottom.png,RedGaborBoth.png,Red.mp3,red,bottom,1,1,0,,,,0,1,1,5,377.15332187496824,,,,,,,,,,,,,,,,bottom,,,,,,,,377.13957937498344,378.52048454101896,378.52065383299487,383.7703099999926,383.77850279101403,385.0202686249977,385.02189879101934,386.75453325000126,386.7549804999726,390.9711786250118,mostlygreen,FinalRedContrast,FinalGreenContrast,390.97237650002353,395.6877778330236,3,050526hf,001,2026-05-05_12h22.14.027,priming,,2026.1.3,60.0001049974908,2026-05-05 12h22.14.544040 -0700,
GR_Congruent_RedCue_RedProbe_Top,GreenGaborBoth.png,RedGaborBoth.png,GreenGaborBoth.png,RedGaborDisappearTop.png,Red.mp3,red,top,2,2,0,,,,0,2,2,8,395.70358945801854,,,,,,,,,,,,,,,,top,,,,,,,,395.6879191659973,499.3043630410102,499.30453037499683,504.5540631249896,504.56231616600417,505.8039670410217,505.80592491599964,507.4044555830187,507.4059124580235,509.8048510410008,mostlyred,FinalRedContrast,FinalGreenContrast,509.8060648330138,512.3548070410034,2,050526hf,001,2026-05-05_12h22.14.027,priming,,2026.1.3,60.0001049974908,2026-05-05 12h22.14.544040 -0700,
GR_Incongruent_GreenCue_RedProbe_Bottom,GreenGaborBoth.png,RedGaborBoth.png,GreenGaborBoth.png,RedGaborDisappearBottom.png,Green.mp3,green,bottom,3,3,0,,,,0,3,3,63,512.3706130000064,,,,,,,,,,,,,,,,top,,,,,,,,512.3566643329686,519.7878559160163,519.7880232500029,525.0375254999963,525.0458609159687,526.2875242499867,526.2892449999927,528.5545866250177,528.5563330830191,531.8384298749734,mostlygreen,FinalRedContrast,FinalGreenContrast,531.8395650410093,533.5216276249848,2,050526hf,001,2026-05-05_12h22.14.027,priming,,2026.1.3,60.0001049974908,2026-05-05 12h22.14.544040 -0700,
GR_Incongruent_RedCue_GreenProbe_Top,GreenGaborBoth.png,RedGaborBoth.png,GreenGaborDisappearTop.png,RedGaborBoth.png,Red.mp3,red,top,4,4,0,,,,0,4,4,60,533.5374357079854,,,,,,,,,,,,,,,,bottom,,,,,,,,533.5233029159717,539.6212349580019,539.6213998749736,544.8708656660165,544.8793159159832,546.1208412499982,546.1223182500107,549.0880475409795,549.0897386660217,552.2551283750217,mostlygreen,FinalRedContrast,FinalGreenContrast,552.256382957974,554.5221520409686,2,050526hf,001,2026-05-05_12h22.14.027,priming,,2026.1.3,60.0001049974908,2026-05-05 12h22.14.544040 -0700,
GR_Incongruent_GreenCue_RedProbe_Bottom,GreenGaborBoth.png,RedGaborBoth.png,GreenGaborBoth.png,RedGaborDisappearBottom.png,Green.mp3,green,bottom,5,5,0,,,,0,5,5,47,554.5375786660006,,,,,,,,,,,,,,,,top,,,,,,,,554.5240397499874,555.4379107910208,555.4380778750055,560.6876172909979,560.6939643329824,561.9375084160129,561.9394614159828,563.3713313330081,563.3731000000262,564.4884201249806,mostlyred,FinalRedContrast,FinalGreenContrast,564.4894787499798,566.2550860000192,2,050526hf,001,2026-05-05_12h22.14.027,priming,,2026.1.3,60.0001049974908,2026-05-05 12h22.14.544040 -0700,
GR_Congruent_RedCue_RedProbe_Bottom,GreenGaborBoth.png,RedGaborBoth.png,GreenGaborBoth.png,RedGaborDisappearBottom.png,Red.mp3,red,bottom,6,6,0,,,,0,6,6,57,566.2709043329814,,,,,,,,,,,,,,,,top,,,,,,,,566.2567099159933,567.2212565409718,567.2214203330223,572.4710077079944,572.47732395801,573.7209740409744,573.7227455829852,579.7046989999944,579.7063160000253,582.3885792500223,mostlygreen,FinalRedContrast,FinalGreenContrast,582.3890274160076,584.755287625012,2,050526hf,001,2026-05-05_12h22.14.027,priming,,2026.1.3,60.0001049974908,2026-05-05 12h22.14.544040 -0700,
GR_Incongruent_GreenCue_RedProbe_Top,GreenGaborBoth.png,RedGaborBoth.png,GreenGaborBoth.png,RedGaborDisappearTop.png,Green.mp3,green,top,7,7,0,,,,0,7,7,70,584.7710442079697,,,,,,,,,,,,,,,,bottom,,,,,,,,584.7571877079899,586.2047297909739,586.2048959580134,591.454378416005,591.4617593329749,592.7044230829924,592.7058655410074,595.7052804579725,595.706508415984,597.5885747079737,mostlygreen,FinalRedContrast,FinalGreenContrast,597.5897678330075,598.9220841249917,2,050526hf,001,2026-05-05_12h22.14.027,priming,,2026.1.3,60.0001049974908,2026-05-05 12h22.14.544040 -0700,
GR_Congruent_RedCue_RedProbe_Bottom,GreenGaborBoth.png,RedGaborBoth.png,GreenGaborBoth.png,RedGaborDisappearBottom.png,Red.mp3,red,bottom,8,8,0,,,,0,8,8,65,598.9376618330134,,,,,,,,,,,,,,,,top,,,,,,,,598.9237686250126,600.0714129999978,600.0715770410025,605.3211025409983,605.3274487080052,606.5709915829939,606.5729194160085,609.7214427079889,609.723121625022,612.7885539999697,mostlygreen,FinalRedContrast,FinalGreenContrast,612.7894756660098,614.772001040983,2,050526hf,001,2026-05-05_12h22.14.027,priming,,2026.1.3,60.0001049974908,2026-05-05 12h22.14.544040 -0700,
GR_Incongruent_GreenCue_RedProbe_Top,GreenGaborBoth.png,RedGaborBoth.png,GreenGaborBoth.png,RedGaborDisappearTop.png,Green.mp3,green,top,9,9,0,,,,0,9,9,62,614.7878818329773,,,,,,,,,,,,,,,,top,,,,,,,,614.773867416021,634.7047761660069,634.7049499999848,639.9545629579807,639.9611065000063,641.204593124974,641.2059428329812,643.0215963749797,643.0228265000042,644.5887483329861,mostlygreen,FinalRedContrast,FinalGreenContrast,644.5895718329703,648.0555285409791,2,050526hf,001,2026-05-05_12h22.14.027,priming,,2026.1.3,60.0001049974908,2026-05-05 12h22.14.544040 -0700,
GR_Incongruent_GreenCue_RedProbe_Bottom,GreenGaborBoth.png,RedGaborBoth.png,GreenGaborBoth.png,RedGaborDisappearBottom.png,Green.mp3,green,bottom,10,10,0,,,,0,10,10,7,648.0712853330187,,,,,,,,,,,,,,,,top,,,,,,,,648.0556349160033,649.0549962079967,649.0551645410014,654.3047517910018,654.3110852079699,655.5547365829698,655.556139540975,657.638422790973,657.6401095829788,659.5888299579965,mostlygreen,FinalRedContrast,FinalGreenContrast,659.5901287079905,660.5556915830239,2,050526hf,001,2026-05-05_12h22.14.027,priming,,2026.1.3,60.0001049974908,2026-05-05 12h22.14.544040 -0700,
GR_Congruent_RedCue_RedProbe_Top,GreenGaborBoth.png,RedGaborBoth.png,GreenGaborBoth.png,RedGaborDisappearTop.png,Red.mp3,red,top,11,11,0,,,,0,11,11,24,660.5713490410126,,,,,,,,,,,,,,,,top,,,,,,,,660.5572765829857,663.9383249160019,663.9384894579998,669.1880245829816,669.1943508749828,670.4380957909743,670.4394254999934,672.155202874972,672.1567913750187,673.4888417079928,mostlygreen,FinalRedContrast,FinalGreenContrast,673.490231874981,678.5389184579835,1,050526hf,001,2026-05-05_12h22.14.027,priming,,2026.1.3,60.0001049974908,2026-05-05 12h22.14.544040 -0700,
GR_Congruent_GreenCue_GreenProbe_Bottom,GreenGaborBoth.png,RedGaborBoth.png,GreenGaborDisappearBottom.png,RedGaborBoth.png,Green.mp3,green,bottom,12,12,0,,,,0,12,12,27,678.5546376249986,,,,,,,,,,,,,,,,top,,,,,,,,678.5407303330139,679.9217302079778,679.9218959999853,685.1714715830167,685.1797586249886,686.4215306250262,686.423234790971,689.3719195409794,689.3727102499688,691.6556302499957,evensplit,FinalRedContrast,FinalGreenContrast,691.656766332977,693.3889884160017,1,050526hf,001,2026-05-05_12h22.14.027,priming,,2026.1.3,60.0001049974908,2026-05-05 12h22.14.544040 -0700,
GR_Congruent_RedCue_RedProbe_Bottom,GreenGaborBoth.png,RedGaborBoth.png,GreenGaborBoth.png,RedGaborDisappearBottom.png,Red.mp3,red,bottom,13,13,0,,,,0,13,13,33,693.4047167079989,,,,,,,,,,,,,,,,top,,,,,,,,693.3905914159841,694.4550784159801,694.4552417079685,699.7048762909835,699.7111964159994,700.9548442079686,700.9566874160082,702.5553040410159,702.5562513750046,704.8223614160088,evensplit,FinalRedContrast,FinalGreenContrast,704.8234565830207,708.2389568330254,2,050526hf,001,2026-05-05_12h22.14.027,priming,,2026.1.3,60.0001049974908,2026-05-05 12h22.14.544040 -0700,
GR_Congruent_RedCue_RedProbe_Bottom,GreenGaborBoth.png,RedGaborBoth.png,GreenGaborBoth.png,RedGaborDisappearBottom.png,Red.mp3,red,bottom,14,14,0,,,,0,14,14,17,708.2547478330089,,,,,,,,,,,,,,,,top,,,,,,,,708.2390578329796,709.4051397499861,709.4053055000259,714.6548644999857,714.6612067500246,715.9050331250182,715.9066876249854,719.7553639159887,719.7570744159748,721.9057128750137,allred,FinalRedContrast,FinalGreenContrast,721.9069354159874,723.939146040997,4,050526hf,001,2026-05-05_12h22.14.027,priming,,2026.1.3,60.0001049974908,2026-05-05 12h22.14.544040 -0700,
GR_Incongruent_GreenCue_RedProbe_Top,GreenGaborBoth.png,RedGaborBoth.png,GreenGaborBoth.png,RedGaborDisappearTop.png,Green.mp3,green,top,15,15,0,,,,0,15,15,46,723.9548887499841,,,,,,,,,,,,,,,,bottom,,,,,,,,723.94098449999,725.2219178749947,725.2220856659696,730.4715529580135,730.4779079579748,731.721629415988,731.7234667500015,733.2052665000083,733.2068912910181,735.8890961249708,allred,FinalRedContrast,FinalGreenContrast,735.8902975000092,737.9557642909931,4,050526hf,001,2026-05-05_12h22.14.027,priming,,2026.1.3,60.0001049974908,2026-05-05 12h22.14.544040 -0700,
GG_non_riv_catch_RedCue_GreenProbe_Top,GreenGaborBoth.png,Blank.png,GreenGaborDisappearTop.png,Blank.png,Red.mp3,red,top,16,16,0,,,,0,16,16,76,737.9715895829722,,,,,,,,,,,,,,,,bottom,,,,,,,,737.9575321250013,739.0385746249813,739.0387427909882,744.2882424999843,744.2971726660035,745.5382185410126,745.5401942909812,749.4723514579819,749.47374162497,756.0559477499919,allgreen,FinalRedContrast,FinalGreenContrast,756.0566510829958,762.6725302499835,2,050526hf,001,2026-05-05_12h22.14.027,priming,,2026.1.3,60.0001049974908,2026-05-05 12h22.14.544040 -0700,
GR_Congruent_GreenCue_GreenProbe_Bottom,GreenGaborBoth.png,RedGaborBoth.png,GreenGaborDisappearBottom.png,RedGaborBoth.png,Green.mp3,green,bottom,17,17,0,,,,0,17,17,67,762.6882675829693,,,,,,,,,,,,,,,,top,,,,,,,,762.6744048750261,763.6720249159844,763.6721911249915,768.9217209580238,768.9290012079873,770.171760874975,770.1733570829965,773.4721298330114,773.4737624999834,775.706292791001,mostlyred,FinalRedContrast,FinalGreenContrast,775.7066853329889,780.2896368330112,2,050526hf,001,2026-05-05_12h22.14.027,priming,,2026.1.3,60.0001049974908,2026-05-05 12h22.14.544040 -0700,
GR_Congruent_RedCue_RedProbe_Bottom,GreenGaborBoth.png,RedGaborBoth.png,GreenGaborBoth.png,RedGaborDisappearBottom.png,Red.mp3,red,bottom,18,18,0,,,,0,18,18,41,780.3050341249909,,,,,,,,,,,,,,,,top,,,,,,,,780.2911750000203,781.1055961659877,781.105781790975,786.3551594999735,786.3615629579872,787.6052072080201,787.6069587079692,790.2056275409996,790.2072292499943,792.0726708329748,evensplit,FinalRedContrast,FinalGreenContrast,792.0738679160131,793.8059272500104,2,050526hf,001,2026-05-05_12h22.14.027,priming,,2026.1.3,60.0001049974908,2026-05-05 12h22.14.544040 -0700,
GR_Incongruent_RedCue_GreenProbe_Bottom,GreenGaborBoth.png,RedGaborBoth.png,GreenGaborDisappearBottom.png,RedGaborBoth.png,Red.mp3,red,bottom,19,19,0,,,,0,19,19,21,793.821769791015,,,,,,,,,,,,,,,,top,,,,,,,,793.8060250409762,794.5221736659878,794.5223372909823,799.7718679999816,799.7782882499741,801.0218933749711,801.0239079159801,803.3556043750141,803.3568161660223,805.3227379579912,mostlyred,FinalRedContrast,FinalGreenContrast,805.323669290985,808.0727599579841,3,050526hf,001,2026-05-05_12h22.14.027,priming,,2026.1.3,60.0001049974908,2026-05-05 12h22.14.544040 -0700,
RR_non_riv_catch_GreenCue_RedProbe_Top,Blank.png,RedGaborBoth.png,Blank.png,RedGaborDisappearTop.png,Green.mp3,green,top,20,20,0,,,,0,20,20,74,808.0883699579863,,,,,,,,,,,,,,,,bottom,,,,,,,,808.0746621660073,817.6893522500177,817.689545332978,822.9386770830024,822.9440808329964,824.1886625830084,824.1900055829901,825.4223933329922,825.4239990409696,828.4895025829901,allred,FinalRedContrast,FinalGreenContrast,828.4906240410055,830.489519374969,2,050526hf,001,2026-05-05_12h22.14.027,priming,,2026.1.3,60.0001049974908,2026-05-05 12h22.14.544040 -0700,
GR_Incongruent_RedCue_GreenProbe_Top,GreenGaborBoth.png,RedGaborBoth.png,GreenGaborDisappearTop.png,RedGaborBoth.png,Red.mp3,red,top,21,21,0,,,,0,21,21,36,830.5051679160097,,,,,,,,,,,,,,,,bottom,,,,,,,,830.4911615829915,834.0389253330068,834.0390907080146,839.2886240410153,839.2960440830211,840.5386450000224,840.54018266598,841.5724178749952,841.5738064579782,843.9395130000194,allred,FinalRedContrast,FinalGreenContrast,843.9404144160217,848.689880291,3,050526hf,001,2026-05-05_12h22.14.027,priming,,2026.1.3,60.0001049974908,2026-05-05 12h22.14.544040 -0700,
GR_Incongruent_RedCue_GreenProbe_Top,GreenGaborBoth.png,RedGaborBoth.png,GreenGaborDisappearTop.png,RedGaborBoth.png,Red.mp3,red,top,22,22,0,,,,0,22,22,28,848.7053713750211,,,,,,,,,,,,,,,,top,,,,,,,,848.689986124984,849.6556410000194,849.6558057080256,854.9054044579971,854.9117215829901,856.1554835829884,856.1570784159703,858.4058855830226,858.4073594160145,863.8395902080229,mostlyred,FinalRedContrast,FinalGreenContrast,863.8405681250151,865.8061803749879,1,050526hf,001,2026-05-05_12h22.14.027,priming,,2026.1.3,60.0001049974908,2026-05-05 12h22.14.544040 -0700,
GR_Congruent_GreenCue_GreenProbe_Bottom,GreenGaborBoth.png,RedGaborBoth.png,GreenGaborDisappearBottom.png,RedGaborBoth.png,Green.mp3,green,bottom,23,23,0,,,,0,23,23,35,865.8220434579998,,,,,,,,,,,,,,,,top,,,,,,,,865.8080140000093,866.8057384159765,866.8059029579745,872.0554932910018,872.0618327499833,873.3055183329852,873.306829374982,876.2225048749824,876.2246322499705,878.2729231250123,mostlyred,FinalRedContrast,FinalGreenContrast,878.2742027500062,880.6062079999829,2,050526hf,001,2026-05-05_12h22.14.027,priming,,2026.1.3,60.0001049974908,2026-05-05 12h22.14.544040 -0700,
GR_Congruent_RedCue_RedProbe_Top,GreenGaborBoth.png,RedGaborBoth.png,GreenGaborBoth.png,RedGaborDisappearTop.png,Red.mp3,red,top,24,24,0,,,,0,24,24,56,880.6219826249871,,,,,,,,,,,,,,,,bottom,,,,,,,,880.607892207976,881.1891968749696,881.1893608329701,886.4388715410023,886.4452990409918,887.6889064999996,887.6905548750074,889.3060426249867,889.3074564160197,892.5230704160058,allred,FinalRedContrast,FinalGreenContrast,892.5237504999968,900.5398165829829,2,050526hf,001,2026-05-05_12h22.14.027,priming,,2026.1.3,60.0001049974908,2026-05-05 12h22.14.544040 -0700,
GR_Congruent_RedCue_RedProbe_Top,GreenGaborBoth.png,RedGaborBoth.png,GreenGaborBoth.png,RedGaborDisappearTop.png,Red.mp3,red,top,25,25,0,,,,0,25,25,48,900.5555030410178,,,,,,,,,,,,,,,,bottom,,,,,,,,900.5399430409889,901.6057679579826,901.605934332998,906.8555878750049,906.8620535410009,908.1055787500227,908.1073113330058,909.6893501660088,909.6910358750029,913.4730639160261,mostlyred,FinalRedContrast,FinalGreenContrast,913.4739639160107,916.3897227079724,2,050526hf,001,2026-05-05_12h22.14.027,priming,,2026.1.3,60.0001049974908,2026-05-05 12h22.14.544040 -0700,
GG_non_riv_catch_GreenCue_GreenProbe_Top,GreenGaborBoth.png,Blank.png,GreenGaborDisappearTop.png,Blank.png,Green.mp3,green,top,26,26,0,,,,0,26,26,78,916.4054926250246,,,,,,,,,,,,,,,,bottom,,,,,,,,916.3915569999954,917.1892430409789,917.1894087080145,922.4390240830253,922.4444109579781,923.6890674579772,923.6910354580032,925.6727320000064,925.6748154999805,927.6398407910019,mostlygreen,FinalRedContrast,FinalGreenContrast,927.6411743750214,931.4899180000066,3,050526hf,001,2026-05-05_12h22.14.027,priming,,2026.1.3,60.0001049974908,2026-05-05 12h22.14.544040 -0700,
GR_Incongruent_GreenCue_RedProbe_Bottom,GreenGaborBoth.png,RedGaborBoth.png,GreenGaborBoth.png,RedGaborDisappearBottom.png,Green.mp3,green,bottom,27,27,0,,,,0,27,27,31,931.5056107909768,,,,,,,,,,,,,,,,top,,,,,,,,931.4900252909865,932.3560064159683,932.356172166008,937.6057101659826,937.6139115410042,938.8557436660049,938.8573221249972,941.0561056250008,941.057937583013,943.2566707499791,mostlyred,FinalRedContrast,FinalGreenContrast,943.2571993750171,945.4565238750074,3,050526hf,001,2026-05-05_12h22.14.027,priming,,2026.1.3,60.0001049974908,2026-05-05 12h22.14.544040 -0700,
GR_Incongruent_RedCue_GreenProbe_Bottom,GreenGaborBoth.png,RedGaborBoth.png,GreenGaborDisappearBottom.png,RedGaborBoth.png,Red.mp3,red,bottom,28,28,0,,,,0,28,28,45,945.4722584579722,,,,,,,,,,,,,,,,top,,,,,,,,945.4582070829929,972.9561149160145,972.9562820409774,978.2058882080019,978.213917999994,979.455754207971,979.4573563750018,980.6728839579737,980.6747584160184,983.3901462079957,mostlygreen,FinalRedContrast,FinalGreenContrast,983.3907649579924,986.857168040995,2,050526hf,001,2026-05-05_12h22.14.027,priming,,2026.1.3,60.0001049974908,2026-05-05 12h22.14.544040 -0700,
GR_Congruent_GreenCue_GreenProbe_Bottom,GreenGaborBoth.png,RedGaborBoth.png,GreenGaborDisappearBottom.png,RedGaborBoth.png,Green.mp3,green,bottom,29,29,0,,,,0,29,29,43,986.8726562079974,,,,,,,,,,,,,,,,top,,,,,,,,986.8589570409968,988.0567312500207,988.0569281660137,993.3059762499761,993.3125744999852,994.5559656249825,994.5577546249842,996.2230210410198,996.2244731659885,998.7234821249731,mostlyred,FinalRedContrast,FinalGreenContrast,998.7241762909689,1002.1734161659842,2,050526hf,001,2026-05-05_12h22.14.027,priming,,2026.1.3,60.0001049974908,2026-05-05 12h22.14.544040 -0700,
GR_Incongruent_RedCue_GreenProbe_Bottom,GreenGaborBoth.png,RedGaborBoth.png,GreenGaborDisappearBottom.png,RedGaborBoth.png,Red.mp3,red,bottom,30,30,0,,,,0,30,30,13,1002.1891929159756,,,,,,,,,,,,,,,,top,,,,,,,,1002.1750682080165,1004.2229631249793,1004.2231334579992,1009.472598124994,1009.4790570000187,1010.7226549999905,1010.7244919160148,1013.6896889159689,1013.6909635409829,1016.1900577080087,evensplit,FinalRedContrast,FinalGreenContrast,1016.1914592499961,1022.6573144160211,1,050526hf,001,2026-05-05_12h22.14.027,priming,,2026.1.3,60.0001049974908,2026-05-05 12h22.14.544040 -0700,
GR_Congruent_GreenCue_GreenProbe_Bottom,GreenGaborBoth.png,RedGaborBoth.png,GreenGaborDisappearBottom.png,RedGaborBoth.png,Green.mp3,green,bottom,31,31,0,,,,0,31,31,11,1022.6726810410037,,,,,,,,,,,,,,,,top,,,,,,,,1022.6592039159732,1023.6230462910025,1023.6232114160084,1028.8727817080216,1028.879163791018,1030.122741708008,1030.1248655829695,1031.406434790988,1031.4081529999967,1034.2235469159787,mostlygreen,FinalRedContrast,FinalGreenContrast,1034.2247884160024,1036.1403039160068,1,050526hf,001,2026-05-05_12h22.14.027,priming,,2026.1.3,60.0001049974908,2026-05-05 12h22.14.544040 -0700,
GR_Congruent_RedCue_RedProbe_Bottom,GreenGaborBoth.png,RedGaborBoth.png,GreenGaborBoth.png,RedGaborDisappearBottom.png,Red.mp3,red,bottom,32,32,0,,,,0,32,32,25,1036.1560577499913,,,,,,,,,,,,,,,,bottom,,,,,,,,1036.1418999159941,1036.8564059159835,1036.8565725000226,1042.1059942080174,1042.1135397080216,1043.3561203330173,1043.3579096249887,1044.156543500023,1044.1575065830257,1045.5569205830107,mostlygreen,FinalRedContrast,FinalGreenContrast,1045.5582373330253,1047.2903327500098,1,050526hf,001,2026-05-05_12h22.14.027,priming,,2026.1.3,60.0001049974908,2026-05-05 12h22.14.544040 -0700,
RR_non_riv_catch_RedCue_RedProbe_Top,Blank.png,RedGaborBoth.png,Blank.png,RedGaborDisappearTop.png,Red.mp3,red,top,33,33,0,,,,0,33,33,72,1047.3060237080208,,,,,,,,,,,,,,,,bottom,,,,,,,,1047.2904356250074,1048.0230956660234,1048.0232590829837,1053.2727532499703,1053.2794770409819,1054.52294325002,1054.524474749982,1057.2566505830036,1057.2583118330222,1059.6403927499778,allred,FinalRedContrast,FinalGreenContrast,1059.6416459999746,1062.523791500018,1,050526hf,001,2026-05-05_12h22.14.027,priming,,2026.1.3,60.0001049974908,2026-05-05 12h22.14.544040 -0700,
GR_Incongruent_RedCue_GreenProbe_Bottom,GreenGaborBoth.png,RedGaborBoth.png,GreenGaborDisappearBottom.png,RedGaborBoth.png,Red.mp3,red,bottom,34,34,0,,,,0,34,34,37,1062.539482082997,,,,,,,,,,,,,,,,top,,,,,,,,1062.523890500015,1063.4065703750239,1063.4067345830263,1068.656269249972,1068.662720000022,1069.9062732079765,1069.9076525829732,1071.2233098329743,1071.2249746660236,1073.4070487910067,mostlyred,FinalRedContrast,FinalGreenContrast,1073.4082270410145,1076.0569716250175,1,050526hf,001,2026-05-05_12h22.14.027,priming,,2026.1.3,60.0001049974908,2026-05-05 12h22.14.544040 -0700,
GR_Incongruent_GreenCue_RedProbe_Bottom,GreenGaborBoth.png,RedGaborBoth.png,GreenGaborBoth.png,RedGaborDisappearBottom.png,Green.mp3,green,bottom,35,35,0,,,,0,35,35,71,1076.072791124985,,,,,,,,,,,,,,,,top,,,,,,,,1076.0588529160013,1076.956549333001,1076.9567146659829,1082.2062727080192,1082.2127073750016,1083.4561459160177,1083.4580092499964,1084.6232811249793,1084.6249337500194,1086.2071114999708,mostlygreen,FinalRedContrast,FinalGreenContrast,1086.2078901249915,1088.2070366250118,2,050526hf,001,2026-05-05_12h22.14.027,priming,,2026.1.3,60.0001049974908,2026-05-05 12h22.14.544040 -0700,
GR_Incongruent_RedCue_GreenProbe_Top,GreenGaborBoth.png,RedGaborBoth.png,GreenGaborDisappearTop.png,RedGaborBoth.png,Red.mp3,red,top,36,36,0,,,,0,36,36,4,1088.2227472499944,,,,,,,,,,,,,,,,bottom,,,,,,,,1088.2086233330192,1088.8733688329812,1088.8735349579947,1094.122986958013,1094.1303048749687,1095.3730484580155,1095.374436416023,1097.0404469579807,1097.0413868749747,1100.1738928749692,mostlygreen,FinalRedContrast,FinalGreenContrast,1100.1751853749738,1103.1405198749853,3,050526hf,001,2026-05-05_12h22.14.027,priming,,2026.1.3,60.0001049974908,2026-05-05 12h22.14.544040 -0700,
GR_Congruent_RedCue_RedProbe_Bottom,GreenGaborBoth.png,RedGaborBoth.png,GreenGaborBoth.png,RedGaborDisappearBottom.png,Red.mp3,red,bottom,37,37,0,,,,0,37,37,49,1103.1562654579757,,,,,,,,,,,,,,,,top,,,,,,,,1103.1406182500068,1103.9234082499752,1103.9235704580205,1109.173070290999,1109.179411833,1110.423099333013,1110.4248594159726,1111.7236018329859,1111.7251796249766,1113.790513999993,mostlygreen,FinalRedContrast,FinalGreenContrast,1113.7914527499815,1115.8905209159711,3,050526hf,001,2026-05-05_12h22.14.027,priming,,2026.1.3,60.0001049974908,2026-05-05 12h22.14.544040 -0700,
GR_Incongruent_GreenCue_RedProbe_Top,GreenGaborBoth.png,RedGaborBoth.png,GreenGaborBoth.png,RedGaborDisappearTop.png,Green.mp3,green,top,38,38,0,,,,0,38,38,30,1115.906211583002,,,,,,,,,,,,,,,,bottom,,,,,,,,1115.892348791007,1116.8066642910126,1116.8068259159918,1122.0563439999823,1122.062701207993,1123.306488332979,1123.3079962909687,1125.657251666009,1125.6576417909819,1127.0072777500027,mostlygreen,FinalRedContrast,FinalGreenContrast,1127.0085662910133,1129.0406569159823,2,050526hf,001,2026-05-05_12h22.14.027,priming,,2026.1.3,60.0001049974908,2026-05-05 12h22.14.544040 -0700,
GR_Incongruent_RedCue_GreenProbe_Top,GreenGaborBoth.png,RedGaborBoth.png,GreenGaborDisappearTop.png,RedGaborBoth.png,Red.mp3,red,top,39,39,0,,,,0,39,39,68,1129.056374415988,,,,,,,,,,,,,,,,bottom,,,,,,,,1129.0422900409903,1132.6234192079864,1132.623582915985,1137.8731864580186,1137.8795549580245,1139.1231832079939,1139.1246893749922,1142.1402506249724,1142.1413289160118,1144.3074617909733,mostlygreen,FinalRedContrast,FinalGreenContrast,1144.30785212497,1146.8906243329984,2,050526hf,001,2026-05-05_12h22.14.027,priming,,2026.1.3,60.0001049974908,2026-05-05 12h22.14.544040 -0700,
GR_Incongruent_GreenCue_RedProbe_Bottom,GreenGaborBoth.png,RedGaborBoth.png,GreenGaborBoth.png,RedGaborDisappearBottom.png,Green.mp3,green,bottom,40,40,0,,,,0,40,40,55,1146.9063330829958,,,,,,,,,,,,,,,,top,,,,,,,,1146.8926377500175,1147.4901410000166,1147.490307,1152.7398218329763,1152.7461488330155,1153.9897566660075,1153.9916608330095,1154.773624665977,1154.7749917500187,1157.1407786249765,mostlygreen,FinalRedContrast,FinalGreenContrast,1157.1421356250066,1162.7240808330243,1,050526hf,001,2026-05-05_12h22.14.027,priming,,2026.1.3,60.0001049974908,2026-05-05 12h22.14.544040 -0700,
GR_Incongruent_RedCue_GreenProbe_Bottom,GreenGaborBoth.png,RedGaborBoth.png,GreenGaborDisappearBottom.png,RedGaborBoth.png,Red.mp3,red,bottom,41,41,0,,,,0,41,41,53,1162.739936958009,,,,,,,,,,,,,,,,top,,,,,,,,1162.7257439579698,1163.5735775830108,1163.573746457987,1168.8234235830023,1168.8298124999856,1170.0733002909692,1170.0746435829788,1170.9570780000067,1170.958727749996,1172.2075556250056,mostlygreen,FinalRedContrast,FinalGreenContrast,1172.2087710410124,1176.6407726660254,3,050526hf,001,2026-05-05_12h22.14.027,priming,,2026.1.3,60.0001049974908,2026-05-05 12h22.14.544040 -0700,
GR_Incongruent_GreenCue_RedProbe_Top,GreenGaborBoth.png,RedGaborBoth.png,GreenGaborBoth.png,RedGaborDisappearTop.png,Green.mp3,green,top,42,42,0,,,,0,42,42,38,1176.6565461250138,,,,,,,,,,,,,,,,top,,,,,,,,1176.6427789159934,1177.7402987079695,1177.7404623749899,1182.9900053329766,1182.9964764160104,1184.2399561249767,1184.2416990830097,1186.7904550830135,1186.792171582987,1188.8740807499853,allgreen,FinalRedContrast,FinalGreenContrast,1188.8754363749758,1192.9742250830168,3,050526hf,001,2026-05-05_12h22.14.027,priming,,2026.1.3,60.0001049974908,2026-05-05 12h22.14.544040 -0700,
GR_Congruent_GreenCue_GreenProbe_Bottom,GreenGaborBoth.png,RedGaborBoth.png,GreenGaborDisappearBottom.png,RedGaborBoth.png,Green.mp3,green,bottom,43,43,0,,,,0,43,43,3,1192.9899800409912,,,,,,,,,,,,,,,,bottom,,,,,,,,1192.974326082971,1194.107046374993,1194.1072094580159,1199.3567418329767,1199.3631133330055,1200.6067424580106,1200.6080202080193,1203.7071107079973,1203.7087030829862,1205.3075782079832,allgreen,FinalRedContrast,FinalGreenContrast,1205.3087453750195,1206.824296707986,3,050526hf,001,2026-05-05_12h22.14.027,priming,,2026.1.3,60.0001049974908,2026-05-05 12h22.14.544040 -0700,
GR_Congruent_GreenCue_GreenProbe_Top,GreenGaborBoth.png,RedGaborBoth.png,GreenGaborDisappearTop.png,RedGaborBoth.png,Green.mp3,green,top,44,44,0,,,,0,44,44,66,1206.8399573329953,,,,,,,,,,,,,,,,bottom,,,,,,,,1206.8243972079945,1207.4236823749961,1207.423849624989,1212.6733595409896,1212.6796746660257,1213.9234083750052,1213.9252203750075,1219.423854749999,1219.425537416013,1221.9408882079879,mostlygreen,FinalRedContrast,FinalGreenContrast,1221.9421909580124,1222.9575084579992,3,050526hf,001,2026-05-05_12h22.14.027,priming,,2026.1.3,60.0001049974908,2026-05-05 12h22.14.544040 -0700,
GR_Congruent_RedCue_RedProbe_Top,GreenGaborBoth.png,RedGaborBoth.png,GreenGaborBoth.png,RedGaborDisappearTop.png,Red.mp3,red,top,45,45,0,,,,0,45,45,40,1222.9732903749682,,,,,,,,,,,,,,,,bottom,,,,,,,,1222.9591750410036,1223.5570306659793,1223.5571961249807,1228.8068415410235,1228.8132196660154,1230.0569113329984,1230.0585103330086,1232.1739413749892,1232.1757115829969,1235.3243848750135,mostlygreen,FinalRedContrast,FinalGreenContrast,1235.3249367079698,1241.8243151659844,2,050526hf,001,2026-05-05_12h22.14.027,priming,,2026.1.3,60.0001049974908,2026-05-05 12h22.14.544040 -0700,
RR_non_riv_catch_GreenCue_RedProbe_Bottom,Blank.png,RedGaborBoth.png,Blank.png,RedGaborDisappearBottom.png,Green.mp3,green,bottom,46,46,0,,,,0,46,46,75,1241.840154665988,,,,,,,,,,,,,,,,top,,,,,,,,1241.8263054160052,1242.5572183749755,1242.5573836250114,1247.8068474580068,1247.8122575000161,1249.0568804580253,1249.0583760829759,1250.1574343329994,1250.1590673329774,1252.2243444580236,allred,FinalRedContrast,FinalGreenContrast,1252.225688208011,1254.2910483750165,4,050526hf,001,2026-05-05_12h22.14.027,priming,,2026.1.3,60.0001049974908,2026-05-05 12h22.14.544040 -0700,
GR_Congruent_GreenCue_GreenProbe_Bottom,GreenGaborBoth.png,RedGaborBoth.png,GreenGaborDisappearBottom.png,RedGaborBoth.png,Green.mp3,green,bottom,47,47,0,,,,0,47,47,19,1254.3068555829814,,,,,,,,,,,,,,,,top,,,,,,,,1254.2911479999893,1255.207213458023,1255.2073770409916,1260.4569840829936,1260.463407083007,1261.7070612079697,1261.7084868329694,1263.6240692079882,1263.6257029160042,1267.5577930830186,mostlygreen,FinalRedContrast,FinalGreenContrast,1267.5585436249967,1269.8745033330051,4,050526hf,001,2026-05-05_12h22.14.027,priming,,2026.1.3,60.0001049974908,2026-05-05 12h22.14.544040 -0700,
GG_non_riv_catch_GreenCue_GreenProbe_Bottom,GreenGaborBoth.png,Blank.png,GreenGaborDisappearBottom.png,Blank.png,Green.mp3,green,bottom,48,48,0,,,,0,48,48,79,1269.8902446660213,,,,,,,,,,,,,,,,top,,,,,,,,1269.8746022499981,1270.423995707999,1270.4241576659842,1275.6736110830097,1275.6789761250257,1276.9237044160254,1276.9255016659736,1278.1407445829827,1278.1423502910184,1280.941201040987,allgreen,FinalRedContrast,FinalGreenContrast,1280.9425944159739,1282.591130915971,3,050526hf,001,2026-05-05_12h22.14.027,priming,,2026.1.3,60.0001049974908,2026-05-05 12h22.14.544040 -0700,
GR_Congruent_RedCue_RedProbe_Bottom,GreenGaborBoth.png,RedGaborBoth.png,GreenGaborBoth.png,RedGaborDisappearBottom.png,Red.mp3,red,bottom,49,49,0,,,,0,49,49,1,1282.606930583017,,,,,,,,,,,,,,,,bottom,,,,,,,,1282.5927635830012,1286.2573515410186,1286.2575139160035,1291.506923708017,1291.5132932499982,1292.7571552500012,1292.7590010829736,1294.9741005409742,1294.9751022909768,1298.3580216249684,mostlygreen,FinalRedContrast,FinalGreenContrast,1298.3586638330016,1300.691341208003,2,050526hf,001,2026-05-05_12h22.14.027,priming,,2026.1.3,60.0001049974908,2026-05-05 12h22.14.544040 -0700,
GR_Congruent_GreenCue_GreenProbe_Top,GreenGaborBoth.png,RedGaborBoth.png,GreenGaborDisappearTop.png,RedGaborBoth.png,Green.mp3,green,top,50,50,0,,,,0,50,50,34,1300.7070580410073,,,,,,,,,,,,,,,,bottom,,,,,,,,1300.6932149999775,1301.4574470410007,1301.4576093750075,1306.7071778330137,1306.713639624999,1307.9571229579742,1307.9585050410242,1308.8074191249907,1308.8090656659915,1311.5079506660113,mostlygreen,FinalRedContrast,FinalGreenContrast,1311.509206290997,1312.774618000025,2,050526hf,001,2026-05-05_12h22.14.027,priming,,2026.1.3,60.0001049974908,2026-05-05 12h22.14.544040 -0700,
GR_Congruent_RedCue_RedProbe_Top,GreenGaborBoth.png,RedGaborBoth.png,GreenGaborBoth.png,RedGaborDisappearTop.png,Red.mp3,red,top,51,51,0,,,,0,51,51,0,1312.7902953330195,,,,,,,,,,,,,,,,bottom,,,,,,,,1312.7762629159843,1325.140749666025,1325.1409147909726,1330.390470208018,1330.3969982080162,1331.6405690829852,1331.6424571659882,1334.3243513749912,1334.325917957991,1336.0913857499836,mostlygreen,FinalRedContrast,FinalGreenContrast,1336.0922290409799,1337.2581064580008,2,050526hf,001,2026-05-05_12h22.14.027,priming,,2026.1.3,60.0001049974908,2026-05-05 12h22.14.544040 -0700,
GR_Incongruent_RedCue_GreenProbe_Top,GreenGaborBoth.png,RedGaborBoth.png,GreenGaborDisappearTop.png,RedGaborBoth.png,Red.mp3,red,top,52,52,0,,,,0,52,52,52,1337.2738115409738,,,,,,,,,,,,,,,,top,,,,,,,,1337.2582141250023,1338.4079547500005,1338.4081623749807,1343.6572842500173,1343.6638608329813,1344.9073555829818,1344.9091818329762,1347.3577423329698,1347.3593616249855,1349.241315790976,mostlygreen,FinalRedContrast,FinalGreenContrast,1349.2425215410185,1351.6915049999952,2,050526hf,001,2026-05-05_12h22.14.027,priming,,2026.1.3,60.0001049974908,2026-05-05 12h22.14.544040 -0700,
GR_Congruent_RedCue_RedProbe_Top,GreenGaborBoth.png,RedGaborBoth.png,GreenGaborBoth.png,RedGaborDisappearTop.png,Red.mp3,red,top,53,53,0,,,,0,53,53,64,1351.7071907080244,,,,,,,,,,,,,,,,bottom,,,,,,,,1351.6916124999989,1356.0575390000013,1356.0577017500182,1361.3073836659896,1361.3137569579994,1362.5574279580032,1362.5591751660104,1364.4411188749946,1364.4427713329787,1367.091551874997,mostlygreen,FinalRedContrast,FinalGreenContrast,1367.092752291006,1368.4915786249912,2,050526hf,001,2026-05-05_12h22.14.027,priming,,2026.1.3,60.0001049974908,2026-05-05 12h22.14.544040 -0700,
GR_Congruent_GreenCue_GreenProbe_Bottom,GreenGaborBoth.png,RedGaborBoth.png,GreenGaborDisappearBottom.png,RedGaborBoth.png,Green.mp3,green,bottom,54,54,0,,,,0,54,54,51,1368.5072957079974,,,,,,,,,,,,,,,,top,,,,,,,,1368.493426416011,1369.1243180410238,1369.124484791013,1374.3740516660037,1374.3806165410206,1375.624072541017,1375.6257254579687,1376.7744436250068,1376.776195249986,1378.3915229999693,mostlygreen,FinalRedContrast,FinalGreenContrast,1378.392947541026,1379.2915880000219,2,050526hf,001,2026-05-05_12h22.14.027,priming,,2026.1.3,60.0001049974908,2026-05-05 12h22.14.544040 -0700,
GR_Congruent_GreenCue_GreenProbe_Top,GreenGaborBoth.png,RedGaborBoth.png,GreenGaborDisappearTop.png,RedGaborBoth.png,Green.mp3,green,top,55,55,0,,,,0,55,55,2,1379.3072994159884,,,,,,,,,,,,,,,,bottom,,,,,,,,1379.2916940409923,1380.3077140409732,1380.3078779579955,1385.557377582998,1385.5638439159957,1386.8074007909745,1386.8090392909944,1387.7744574579992,1387.7760755830095,1389.9081436250126,mostlygreen,FinalRedContrast,FinalGreenContrast,1389.9092201250023,1392.2915600829874,2,050526hf,001,2026-05-05_12h22.14.027,priming,,2026.1.3,60.0001049974908,2026-05-05 12h22.14.544040 -0700,
GR_Incongruent_GreenCue_RedProbe_Top,GreenGaborBoth.png,RedGaborBoth.png,GreenGaborBoth.png,RedGaborDisappearTop.png,Green.mp3,green,top,56,56,0,,,,0,56,56,22,1392.3072981659789,,,,,,,,,,,,,,,,bottom,,,,,,,,1392.291657749971,1393.3742837079917,1393.3744494160055,1398.624214957992,1398.63066604099,1399.8741880829912,1399.8754741660086,1401.7412467499962,1401.7428988749743,1403.0083032500115,mostlygreen,FinalRedContrast,FinalGreenContrast,1403.009375708003,1405.5250652909745,2,050526hf,001,2026-05-05_12h22.14.027,priming,,2026.1.3,60.0001049974908,2026-05-05 12h22.14.544040 -0700,
GR_Incongruent_RedCue_GreenProbe_Top,GreenGaborBoth.png,RedGaborBoth.png,GreenGaborDisappearTop.png,RedGaborBoth.png,Red.mp3,red,top,57,57,0,,,,0,57,57,44,1405.540757041017,,,,,,,,,,,,,,,,top,,,,,,,,1405.5267149999854,1406.891163250024,1406.8913272499922,1412.1408245409839,1412.147253416013,1413.3908314579749,1413.3925115829916,1414.691278583021,1414.6930306249997,1416.5583318329882,mostlygreen,FinalRedContrast,FinalGreenContrast,1416.5596450829762,1417.5748744580196,2,050526hf,001,2026-05-05_12h22.14.027,priming,,2026.1.3,60.0001049974908,2026-05-05 12h22.14.544040 -0700,
GR_Congruent_RedCue_RedProbe_Top,GreenGaborBoth.png,RedGaborBoth.png,GreenGaborBoth.png,RedGaborDisappearTop.png,Red.mp3,red,top,58,58,0,,,,0,58,58,16,1417.5908232079819,,,,,,,,,,,,,,,,bottom,,,,,,,,1417.5749739159946,1421.274528208014,1421.2747010000166,1426.5241002080147,1426.5327249999973,1427.7743595829816,1427.7757074999972,1430.0414185000118,1430.0425452499767,1431.991778332973,evensplit,FinalRedContrast,FinalGreenContrast,1431.9929077500128,1434.8086581659736,2,050526hf,001,2026-05-05_12h22.14.027,priming,,2026.1.3,60.0001049974908,2026-05-05 12h22.14.544040 -0700,
RR_non_riv_catch_RedCue_RedProbe_Bottom,Blank.png,RedGaborBoth.png,Blank.png,RedGaborDisappearBottom.png,Red.mp3,red,bottom,59,59,0,,,,0,59,59,73,1434.8242951249704,,,,,,,,,,,,,,,,top,,,,,,,,1434.8087849160074,1436.057927540969,1436.0580960409716,1441.307690415997,1441.314390540996,1442.557719208009,1442.5594423749717,1443.874644208001,1443.876153833,1445.2088040829985,allred,FinalRedContrast,FinalGreenContrast,1445.2091211249935,1447.4750884579844,4,050526hf,001,2026-05-05_12h22.14.027,priming,,2026.1.3,60.0001049974908,2026-05-05 12h22.14.544040 -0700,
GR_Incongruent_GreenCue_RedProbe_Bottom,GreenGaborBoth.png,RedGaborBoth.png,GreenGaborBoth.png,RedGaborDisappearBottom.png,Green.mp3,green,bottom,60,60,0,,,,0,60,60,39,1447.490896000003,,,,,,,,,,,,,,,,top,,,,,,,,1447.4769880410167,1472.1581018749857,1472.1582682079752,1477.4077659579925,1477.4141343329684,1478.6578916659928,1478.6596470410004,1480.8748872500146,1480.8764386660187,1482.1752445410239,mostlygreen,FinalRedContrast,FinalGreenContrast,1482.1767739999923,1484.9923449159833,2,050526hf,001,2026-05-05_12h22.14.027,priming,,2026.1.3,60.0001049974908,2026-05-05 12h22.14.544040 -0700,
GR_Incongruent_GreenCue_RedProbe_Top,GreenGaborBoth.png,RedGaborBoth.png,GreenGaborBoth.png,RedGaborDisappearTop.png,Green.mp3,green,top,61,61,0,,,,0,61,61,14,1485.0077200409723,,,,,,,,,,,,,,,,bottom,,,,,,,,1484.9924467909732,1486.7414007909829,1486.7415653329808,1491.9910969579942,1491.9974530829932,1493.24115037499,1493.243028124969,1494.2415902909706,1494.2431052500033,1495.3754144160193,mostlygreen,FinalRedContrast,FinalGreenContrast,1495.3760825829813,1497.1588252080255,2,050526hf,001,2026-05-05_12h22.14.027,priming,,2026.1.3,60.0001049974908,2026-05-05 12h22.14.544040 -0700,
GR_Incongruent_GreenCue_RedProbe_Bottom,GreenGaborBoth.png,RedGaborBoth.png,GreenGaborBoth.png,RedGaborDisappearBottom.png,Green.mp3,green,bottom,62,62,0,,,,0,62,62,15,1497.1745107910247,,,,,,,,,,,,,,,,top,,,,,,,,1497.1589329160051,1498.141563541023,1498.14172616601,1503.3912053750246,1503.3976271660067,1504.6413608749863,1504.6427111250232,1507.3749582910095,1507.3767351660063,1508.8587756250054,evensplit,FinalRedContrast,FinalGreenContrast,1508.8594039580203,1509.541983166011,2,050526hf,001,2026-05-05_12h22.14.027,priming,,2026.1.3,60.0001049974908,2026-05-05 12h22.14.544040 -0700,
GR_Incongruent_RedCue_GreenProbe_Top,GreenGaborBoth.png,RedGaborBoth.png,GreenGaborDisappearTop.png,RedGaborBoth.png,Red.mp3,red,top,63,63,0,,,,0,63,63,12,1509.5578424580162,,,,,,,,,,,,,,,,bottom,,,,,,,,1509.543610874971,1510.3581896250253,1510.358353290998,1515.6077702500043,1515.6152945830254,1516.8578804999706,1516.8595077909995,1518.3249479159713,1518.3269143329817,1519.4586498329882,mostlygreen,FinalRedContrast,FinalGreenContrast,1519.4602793750237,1521.4920242499793,3,050526hf,001,2026-05-05_12h22.14.027,priming,,2026.1.3,60.0001049974908,2026-05-05 12h22.14.544040 -0700,
GR_Incongruent_RedCue_GreenProbe_Bottom,GreenGaborBoth.png,RedGaborBoth.png,GreenGaborDisappearBottom.png,RedGaborBoth.png,Red.mp3,red,bottom,64,64,0,,,,0,64,64,29,1521.5078114999924,,,,,,,,,,,,,,,,top,,,,,,,,1521.4921370410011,1522.6582359999884,1522.6584003749886,1527.9079746250063,1527.9153442910174,1529.1580261659692,1529.159480375005,1530.1584514579736,1530.1601574160159,1532.3588321660063,mostlygreen,FinalRedContrast,FinalGreenContrast,1532.3598639579723,1534.7421942909714,2,050526hf,001,2026-05-05_12h22.14.027,priming,,2026.1.3,60.0001049974908,2026-05-05 12h22.14.544040 -0700,
GR_Congruent_RedCue_RedProbe_Top,GreenGaborBoth.png,RedGaborBoth.png,GreenGaborBoth.png,RedGaborDisappearTop.png,Red.mp3,red,top,65,65,0,,,,0,65,65,32,1534.7579387499718,,,,,,,,,,,,,,,,bottom,,,,,,,,1534.7422934580245,1535.5083266249858,1535.5084923750255,1540.7581381250056,1540.7645529999863,1542.0080394580145,1542.0097601250163,1543.3251452079858,1543.326821374998,1545.2921660830034,mostlygreen,FinalRedContrast,FinalGreenContrast,1545.2934455000213,1552.4256809159997,2,050526hf,001,2026-05-05_12h22.14.027,priming,,2026.1.3,60.0001049974908,2026-05-05 12h22.14.544040 -0700,
GR_Congruent_GreenCue_GreenProbe_Top,GreenGaborBoth.png,RedGaborBoth.png,GreenGaborDisappearTop.png,RedGaborBoth.png,Green.mp3,green,top,66,66,0,,,,0,66,66,18,1552.4413179159747,,,,,,,,,,,,,,,,bottom,,,,,,,,1552.4276782500092,1553.2417393330252,1553.241901875008,1558.4914549160167,1558.4990610000095,1559.7412694160012,1559.74294799997,1560.6584415829857,1560.6594908749685,1562.0090034580207,allgreen,FinalRedContrast,FinalGreenContrast,1562.0095409579808,1564.2423948330106,4,050526hf,001,2026-05-05_12h22.14.027,priming,,2026.1.3,60.0001049974908,2026-05-05 12h22.14.544040 -0700,
GR_Congruent_GreenCue_GreenProbe_Top,GreenGaborBoth.png,RedGaborBoth.png,GreenGaborDisappearTop.png,RedGaborBoth.png,Green.mp3,green,top,67,67,0,,,,0,67,67,26,1564.2579630410182,,,,,,,,,,,,,,,,bottom,,,,,,,,1564.242503290996,1565.1251847079839,1565.1253478750004,1570.3748977499781,1570.381458125019,1571.6248662080034,1571.626592583023,1572.4419042500085,1572.4429477910162,1574.6090404160204,allgreen,FinalRedContrast,FinalGreenContrast,1574.6093267080141,1576.0090055830078,4,050526hf,001,2026-05-05_12h22.14.027,priming,,2026.1.3,60.0001049974908,2026-05-05 12h22.14.544040 -0700,
GG_non_riv_catch_RedCue_GreenProbe_Bottom,GreenGaborBoth.png,Blank.png,GreenGaborDisappearBottom.png,Blank.png,Red.mp3,red,bottom,68,68,0,,,,0,68,68,77,1576.024784750014,,,,,,,,,,,,,,,,top,,,,,,,,1576.010580290982,1576.8252739160089,1576.825440708024,1582.0748332079966,1582.0814690410043,1583.3248742499854,1583.3265985409962,1584.6752517910209,1584.6768033329863,1586.158946999989,allgreen,FinalRedContrast,FinalGreenContrast,1586.1600371659733,1587.2090698329848,4,050526hf,001,2026-05-05_12h22.14.027,priming,,2026.1.3,60.0001049974908,2026-05-05 12h22.14.544040 -0700,
GR_Incongruent_RedCue_GreenProbe_Bottom,GreenGaborBoth.png,RedGaborBoth.png,GreenGaborDisappearBottom.png,RedGaborBoth.png,Red.mp3,red,bottom,69,69,0,,,,0,69,69,69,1587.2248138749856,,,,,,,,,,,,,,,,top,,,,,,,,1587.2091859159991,1588.741761333018,1588.741928207979,1593.9915763330064,1593.998020583007,1595.2414476660197,1595.243132249976,1596.0252903330256,1596.0265518749948,1598.2090703750146,allgreen,FinalRedContrast,FinalGreenContrast,1598.2094102079864,1601.0757159159984,2,050526hf,001,2026-05-05_12h22.14.027,priming,,2026.1.3,60.0001049974908,2026-05-05 12h22.14.544040 -0700,
GR_Congruent_GreenCue_GreenProbe_Bottom,GreenGaborBoth.png,RedGaborBoth.png,GreenGaborDisappearBottom.png,RedGaborBoth.png,Green.mp3,green,bottom,70,70,0,,,,0,70,70,59,1601.0916246660054,,,,,,,,,,,,,,,,top,,,,,,,,1601.0775736250216,1604.5419867080054,1604.5421494159964,1609.7915962499683,1609.7980402910034,1611.0416053750087,1611.043381416006,1612.3420399579918,1612.3432554579922,1614.3591143329977,mostlygreen,FinalRedContrast,FinalGreenContrast,1614.3604273750097,1616.5924295409932,2,050526hf,001,2026-05-05_12h22.14.027,priming,,2026.1.3,60.0001049974908,2026-05-05 12h22.14.544040 -0700,
GR_Congruent_GreenCue_GreenProbe_Top,GreenGaborBoth.png,RedGaborBoth.png,GreenGaborDisappearTop.png,RedGaborBoth.png,Green.mp3,green,top,71,71,0,,,,0,71,71,10,1616.6081940829754,,,,,,,,,,,,,,,,bottom,,,,,,,,1616.5925275830086,1619.0085989159998,1619.008767375024,1624.258357915969,1624.2648170830216,1625.5082824159763,1625.510219290969,1626.4086991659715,1626.4102660000208,1628.442359208013,mostlygreen,FinalRedContrast,FinalGreenContrast,1628.4437430829857,1632.6592751659919,2,050526hf,001,2026-05-05_12h22.14.027,priming,,2026.1.3,60.0001049974908,2026-05-05 12h22.14.544040 -0700,
GR_Incongruent_GreenCue_RedProbe_Bottom,GreenGaborBoth.png,RedGaborBoth.png,GreenGaborBoth.png,RedGaborDisappearBottom.png,Green.mp3,green,bottom,72,72,0,,,,0,72,72,23,1632.6749897499685,,,,,,,,,,,,,,,,bottom,,,,,,,,1632.6593925830093,1633.4419909999706,1633.4421543329954,1638.6917921249988,1638.6994627499953,1639.9417731249705,1639.9435082499986,1641.1759619999793,1641.1768708750024,1642.709137791011,allgreen,FinalRedContrast,FinalGreenContrast,1642.7104132500244,1643.9258767080028,2,050526hf,001,2026-05-05_12h22.14.027,priming,,2026.1.3,60.0001049974908,2026-05-05 12h22.14.544040 -0700,
GR_Congruent_GreenCue_GreenProbe_Top,GreenGaborBoth.png,RedGaborBoth.png,GreenGaborDisappearTop.png,RedGaborBoth.png,Green.mp3,green,top,73,73,0,,,,0,73,73,50,1643.9416882499936,,,,,,,,,,,,,,,,bottom,,,,,,,,1643.9259742079885,1644.8422948329826,1644.842463665991,1650.0918212499819,1650.0981237909873,1651.3418205410126,1651.3434866250027,1653.7255047499784,1653.727126999991,1656.3926690829685,mostlygreen,FinalRedContrast,FinalGreenContrast,1656.3931385829928,1659.3091850830242,2,050526hf,001,2026-05-05_12h22.14.027,priming,,2026.1.3,60.0001049974908,2026-05-05 12h22.14.544040 -0700,
GR_Incongruent_GreenCue_RedProbe_Top,GreenGaborBoth.png,RedGaborBoth.png,GreenGaborBoth.png,RedGaborDisappearTop.png,Green.mp3,green,top,74,74,0,,,,0,74,74,6,1659.3249495829805,,,,,,,,,,,,,,,,bottom,,,,,,,,1659.3092817909783,2045.2602463749936,2045.260410916002,2050.509978707996,2050.51900749997,2051.7599678749684,2051.7619239999913,2052.793749540986,2052.7949860409717,2054.2274380829767,mostlygreen,FinalRedContrast,FinalGreenContrast,2054.2286849580123,2055.6608289160067,2,050526hf,001,2026-05-05_12h22.14.027,priming,,2026.1.3,60.0001049974908,2026-05-05 12h22.14.544040 -0700,
GR_Congruent_GreenCue_GreenProbe_Top,GreenGaborBoth.png,RedGaborBoth.png,GreenGaborDisappearTop.png,RedGaborBoth.png,Green.mp3,green,top,75,75,0,,,,0,75,75,58,2055.6765821250156,,,,,,,,,,,,,,,,bottom,,,,,,,,2055.6609339159913,2056.5103094580118,2056.510473124974,2061.7600075830123,2061.7677516660187,2063.0099284999887,2063.011796666018,2063.72754641599,2063.7283845409984,2065.394066083012,mostlygreen,FinalRedContrast,FinalGreenContrast,2065.394939291,2066.860717832984,2,050526hf,001,2026-05-05_12h22.14.027,priming,,2026.1.3,60.0001049974908,2026-05-05 12h22.14.544040 -0700,
GR_Congruent_RedCue_RedProbe_Bottom,GreenGaborBoth.png,RedGaborBoth.png,GreenGaborBoth.png,RedGaborDisappearBottom.png,Red.mp3,red,bottom,76,76,0,,,,0,76,76,9,2066.8764842079836,,,,,,,,,,,,,,,,top,,,,,,,,2066.8624791660113,2067.726981375017,2067.7271479159826,2072.9768133750185,2072.9843789999723,2074.2266949160257,2074.228812416026,2074.8771875830134,2074.8786436250084,2076.544250958017,mostlygreen,FinalRedContrast,FinalGreenContrast,2076.5452720409958,2078.227563375025,2,050526hf,001,2026-05-05_12h22.14.027,priming,,2026.1.3,60.0001049974908,2026-05-05 12h22.14.544040 -0700,
GR_Incongruent_RedCue_GreenProbe_Bottom,GreenGaborBoth.png,RedGaborBoth.png,GreenGaborDisappearBottom.png,RedGaborBoth.png,Red.mp3,red,bottom,77,77,0,,,,0,77,77,61,2078.243351207988,,,,,,,,,,,,,,,,top,,,,,,,,2078.2276614159928,2078.793786290975,2078.7939543750254,2084.0433147909935,2084.050930749974,2085.29342433298,2085.2953008749755,2085.9772087080055,2085.9783404159825,2087.6109659579815,mostlygreen,FinalRedContrast,FinalGreenContrast,2087.611961415969,2088.760935875005,2,050526hf,001,2026-05-05_12h22.14.027,priming,,2026.1.3,60.0001049974908,2026-05-05 12h22.14.544040 -0700,
GR_Congruent_GreenCue_GreenProbe_Top,GreenGaborBoth.png,RedGaborBoth.png,GreenGaborDisappearTop.png,RedGaborBoth.png,Green.mp3,green,top,78,78,0,,,,0,78,78,42,2088.7766737079946,,,,,,,,,,,,,,,,bottom,,,,,,,,2088.7629078750033,2089.2936324159964,2089.293799249979,2094.5434158329736,2094.5509790829965,2095.7934835000196,2095.7948220000253,2096.527188749984,2096.528891832975,2098.544310041005,mostlygreen,FinalRedContrast,FinalGreenContrast,2098.5450592910056,2099.8275840000133,2,050526hf,001,2026-05-05_12h22.14.027,priming,,2026.1.3,60.0001049974908,2026-05-05 12h22.14.544040 -0700,
GR_Incongruent_RedCue_GreenProbe_Top,GreenGaborBoth.png,RedGaborBoth.png,GreenGaborDisappearTop.png,RedGaborBoth.png,Red.mp3,red,top,79,79,0,,,,0,79,79,20,2099.843370040995,,,,,,,,,,,,,,,,bottom,,,,,,,,2099.82929783297,2100.4603898330242,2100.4605513329734,2105.710181500006,2105.7167249579797,2106.960319457983,2106.962135041016,2108.6273296250147,2108.6288316249847,2113.7611170000164,mostlygreen,FinalRedContrast,FinalGreenContrast,2113.761633832997,2116.7277269579936,2,050526hf,001,2026-05-05_12h22.14.027,priming,,2026.1.3,60.0001049974908,2026-05-05 12h22.14.544040 -0700,
GR_Congruent_RedCue_RedProbe_Bottom,GreenGaborBoth.png,RedGaborBoth.png,GreenGaborBoth.png,RedGaborDisappearBottom.png,Red.mp3,red,bottom,80,0,1,,,,1,0,80,25,2116.743475000025,,,,,,,,,,,,,,,,top,,,,,,,,2116.7278234579717,2152.8106423749705,2152.8108077080105,2158.060299124976,2158.0692915829713,2159.3104569159914,2159.311841165996,2160.7440896659973,2160.745307416015,2161.861085958022,mostlygreen,FinalRedContrast,FinalGreenContrast,2161.8621902500163,2163.311162500002,2,050526hf,001,2026-05-05_12h22.14.027,priming,,2026.1.3,60.0001049974908,2026-05-05 12h22.14.544040 -0700,
GR_Congruent_GreenCue_GreenProbe_Bottom,GreenGaborBoth.png,RedGaborBoth.png,GreenGaborDisappearBottom.png,RedGaborBoth.png,Green.mp3,green,bottom,81,1,1,,,,1,1,81,3,2163.326867915981,,,,,,,,,,,,,,,,top,,,,,,,,2163.313054875005,2166.844040833006,2166.844209040981,2172.0938265409786,2172.1011762080016,2173.343835040985,2173.345192665991,2174.3442643749877,2174.3459216249757,2175.844837624987,mostlygreen,FinalRedContrast,FinalGreenContrast,2175.8459795410163,2177.544677165977,2,050526hf,001,2026-05-05_12h22.14.027,priming,,2026.1.3,60.0001049974908,2026-05-05 12h22.14.544040 -0700,
GR_Incongruent_GreenCue_RedProbe_Top,GreenGaborBoth.png,RedGaborBoth.png,GreenGaborBoth.png,RedGaborDisappearTop.png,Green.mp3,green,top,82,2,1,,,,1,2,82,22,2177.5604142500088,,,,,,,,,,,,,,,,top,,,,,,,,2177.544793332985,2178.644112333015,2178.644277665997,2183.8938055409817,2183.9013927080086,2185.143895291025,2185.145518290985,2186.7274992080056,2186.728489457979,2187.9116600829875,mostlygreen,FinalRedContrast,FinalGreenContrast,2187.911930416012,2189.9117686250247,2,050526hf,001,2026-05-05_12h22.14.027,priming,,2026.1.3,60.0001049974908,2026-05-05 12h22.14.544040 -0700,
GR_Congruent_GreenCue_GreenProbe_Top,GreenGaborBoth.png,RedGaborBoth.png,GreenGaborDisappearTop.png,RedGaborBoth.png,Green.mp3,green,top,83,3,1,,,,1,3,83,42,2189.927024708013,,,,,,,,,,,,,,,,bottom,,,,,,,,2189.911867666,2190.810903540987,2190.8110687499866,2196.060467790987,2196.0680925410124,2197.310484124988,2197.312284832995,2198.4608583750087,2198.4626956249704,2200.094958957983,mostlygreen,FinalRedContrast,FinalGreenContrast,2200.0957096659695,2201.277927707997,2,050526hf,001,2026-05-05_12h22.14.027,priming,,2026.1.3,60.0001049974908,2026-05-05 12h22.14.544040 -0700,
GR_Congruent_GreenCue_GreenProbe_Top,GreenGaborBoth.png,RedGaborBoth.png,GreenGaborDisappearTop.png,RedGaborBoth.png,Green.mp3,green,top,84,4,1,,,,1,4,84,2,2201.2937353749876,,,,,,,,,,,,,,,,bottom,,,,,,,,2201.2780260409927,2201.9942320410046,2201.99439829099,2207.2439917909796,2207.250559707987,2208.4939221660024,2208.4960570409894,2210.0610136659816,2210.062645374972,2211.7113768749987,mostlygreen,FinalRedContrast,FinalGreenContrast,2211.7125027910224,2212.828027874988,2,050526hf,001,2026-05-05_12h22.14.027,priming,,2026.1.3,60.0001049974908,2026-05-05 12h22.14.544040 -0700,
GR_Incongruent_RedCue_GreenProbe_Top,GreenGaborBoth.png,RedGaborBoth.png,GreenGaborDisappearTop.png,RedGaborBoth.png,Red.mp3,red,top,85,5,1,,,,1,5,85,4,2212.843840415997,,,,,,,,,,,,,,,,bottom,,,,,,,,2212.829782708024,2213.5442274580128,2213.5443970829947,2218.7939570409944,2218.800452540978,2220.0439292499796,2220.0454834579723,2220.7943544160225,2220.795976541005,2221.944672707992,mostlygreen,FinalRedContrast,FinalGreenContrast,2221.945896415971,2223.3948453330086,2,050526hf,001,2026-05-05_12h22.14.027,priming,,2026.1.3,60.0001049974908,2026-05-05 12h22.14.544040 -0700,
GR_Congruent_RedCue_RedProbe_Top,GreenGaborBoth.png,RedGaborBoth.png,GreenGaborBoth.png,RedGaborDisappearTop.png,Red.mp3,red,top,86,6,1,,,,1,6,86,32,2223.4105299999937,,,,,,,,,,,,,,,,bottom,,,,,,,,2223.394979332981,2224.077531124989,2224.0776955829933,2229.327175791026,2229.333625625004,2230.577288999979,2230.5792650000076,2232.3276387500227,2232.329625333019,2235.6447077079793,mostlygreen,FinalRedContrast,FinalGreenContrast,2235.646183707984,2238.2447959579877,2,050526hf,001,2026-05-05_12h22.14.027,priming,,2026.1.3,60.0001049974908,2026-05-05 12h22.14.544040 -0700,
GR_Congruent_RedCue_RedProbe_Top,GreenGaborBoth.png,RedGaborBoth.png,GreenGaborBoth.png,RedGaborDisappearTop.png,Red.mp3,red,top,87,7,1,,,,1,7,87,16,2238.260611957987,,,,,,,,,,,,,,,,bottom,,,,,,,,2238.2448952079867,2240.4110080000246,2240.411172166001,2245.660918041016,2245.6750689159962,2246.9273029160104,2246.929003999976,2248.644384041021,2248.646184666024,2250.461458000005,mostlygreen,FinalRedContrast,FinalGreenContrast,2250.462738375005,2251.2281752079725,2,050526hf,001,2026-05-05_12h22.14.027,priming,,2026.1.3,60.0001049974908,2026-05-05 12h22.14.544040 -0700,
GR_Incongruent_RedCue_GreenProbe_Bottom,GreenGaborBoth.png,RedGaborBoth.png,GreenGaborDisappearBottom.png,RedGaborBoth.png,Red.mp3,red,bottom,88,8,1,,,,1,8,88,53,2251.243896165979,,,,,,,,,,,,,,,,top,,,,,,,,2251.228281290969,2252.2109554579947,2252.2111281660036,2257.4607529159985,2257.469007332984,2258.710750499973,2258.7121569999726,2259.4277166660177,2259.429373290972,2261.4449095000164,mostlygreen,FinalRedContrast,FinalGreenContrast,2261.446260083001,2265.144938207988,2,050526hf,001,2026-05-05_12h22.14.027,priming,,2026.1.3,60.0001049974908,2026-05-05 12h22.14.544040 -0700,
GR_Incongruent_GreenCue_RedProbe_Bottom,GreenGaborBoth.png,RedGaborBoth.png,GreenGaborBoth.png,RedGaborDisappearBottom.png,Green.mp3,green,bottom,89,9,1,,,,1,9,89,71,2265.160600583011,,,,,,,,,,,,,,,,top,,,,,,,,2265.146899915999,2265.944542000012,2265.944709083007,2271.1942352079786,2271.2019638330094,2272.4442291660234,2272.4455716660013,2274.477876249992,2274.4797730830032,2275.6117246249923,mostlygreen,FinalRedContrast,FinalGreenContrast,2275.612787083024,2277.278260082996,1,050526hf,001,2026-05-05_12h22.14.027,priming,,2026.1.3,60.0001049974908,2026-05-05 12h22.14.544040 -0700,
GR_Incongruent_GreenCue_RedProbe_Top,GreenGaborBoth.png,RedGaborBoth.png,GreenGaborBoth.png,RedGaborDisappearTop.png,Green.mp3,green,top,90,10,1,,,,1,10,90,14,2277.2940898750094,,,,,,,,,,,,,,,,bottom,,,,,,,,2277.278358749987,2278.011155290995,2278.011318249977,2283.2608827910153,2283.26848983299,2284.510868708021,2284.512613333005,2285.4278743750183,2285.429610916006,2286.5617137909867,mostlygreen,FinalRedContrast,FinalGreenContrast,2286.5628771249903,2288.044982415973,2,050526hf,001,2026-05-05_12h22.14.027,priming,,2026.1.3,60.0001049974908,2026-05-05 12h22.14.544040 -0700,
GR_Congruent_GreenCue_GreenProbe_Top,GreenGaborBoth.png,RedGaborBoth.png,GreenGaborDisappearTop.png,RedGaborBoth.png,Green.mp3,green,top,91,11,1,,,,1,11,91,10,2288.0607299159747,,,,,,,,,,,,,,,,bottom,,,,,,,,2288.0450790409814,2288.6781484580133,2288.678321040992,2293.9275325409835,2293.9351419159793,2295.1774718330125,2295.1796525829704,2295.895003875019,2295.895791458024,2297.6783445830224,mostlygreen,FinalRedContrast,FinalGreenContrast,2297.6796262499993,2300.595014958002,2,050526hf,001,2026-05-05_12h22.14.027,priming,,2026.1.3,60.0001049974908,2026-05-05 12h22.14.544040 -0700,
RR_non_riv_catch_GreenCue_RedProbe_Top,Blank.png,RedGaborBoth.png,Blank.png,RedGaborDisappearTop.png,Green.mp3,green,top,92,12,1,,,,1,12,92,74,2300.610831665981,,,,,,,,,,,,,,,,bottom,,,,,,,,2300.5951134579955,2301.244516875013,2301.2446786660003,2306.494327666005,2306.500615915982,2307.744380625023,2307.7462722079945,2308.5113979160087,2308.5129152910085,2309.745222040976,allred,FinalRedContrast,FinalGreenContrast,2309.746356207994,2312.3951868750155,4,050526hf,001,2026-05-05_12h22.14.027,priming,,2026.1.3,60.0001049974908,2026-05-05 12h22.14.544040 -0700,
GR_Incongruent_RedCue_GreenProbe_Bottom,GreenGaborBoth.png,RedGaborBoth.png,GreenGaborDisappearBottom.png,RedGaborBoth.png,Red.mp3,red,bottom,93,13,1,,,,1,13,93,45,2312.410947165976,,,,,,,,,,,,,,,,top,,,,,,,,2312.3967752910103,2313.1612794579705,2313.161442750017,2318.410983083013,2318.417435457988,2319.66102333297,2319.662849040993,2320.578089457995,2320.5798042080132,2322.945155250025,allgreen,FinalRedContrast,FinalGreenContrast,2322.9464771659696,2324.595065624977,4,050526hf,001,2026-05-05_12h22.14.027,priming,,2026.1.3,60.0001049974908,2026-05-05 12h22.14.544040 -0700,
GR_Congruent_RedCue_RedProbe_Bottom,GreenGaborBoth.png,RedGaborBoth.png,GreenGaborBoth.png,RedGaborDisappearBottom.png,Red.mp3,red,bottom,94,14,1,,,,1,14,94,1,2324.610822791001,,,,,,,,,,,,,,,,top,,,,,,,,2324.5951646660105,2357.711473124975,2357.7116389580187,2362.961123957997,2362.969887458021,2364.2111880829907,2364.2129650409915,2364.9782134999987,2364.9794886250165,2366.2956161249895,mostlygreen,FinalRedContrast,FinalGreenContrast,2366.2961055000196,2372.462064624997,2,050526hf,001,2026-05-05_12h22.14.027,priming,,2026.1.3,60.0001049974908,2026-05-05 12h22.14.544040 -0700,
GR_Incongruent_GreenCue_RedProbe_Top,GreenGaborBoth.png,RedGaborBoth.png,GreenGaborBoth.png,RedGaborDisappearTop.png,Green.mp3,green,top,95,15,1,,,,1,15,95,62,2372.4778648749925,,,,,,,,,,,,,,,,bottom,,,,,,,,2372.463946041011,2373.128234624979,2373.1284012499964,2378.377907707996,2378.3854119160096,2379.627852750011,2379.629979624995,2380.27837133297,2380.2795775830164,2381.4955579160014,mostlygreen,FinalRedContrast,FinalGreenContrast,2381.495819500007,2382.6620569999795,2,050526hf,001,2026-05-05_12h22.14.027,priming,,2026.1.3,60.0001049974908,2026-05-05 12h22.14.544040 -0700,
GR_Incongruent_RedCue_GreenProbe_Top,GreenGaborBoth.png,RedGaborBoth.png,GreenGaborDisappearTop.png,RedGaborBoth.png,Red.mp3,red,top,96,16,1,,,,1,16,96,12,2382.677856291004,,,,,,,,,,,,,,,,bottom,,,,,,,,2382.663716332987,2383.4115633330075,2383.4117335830233,2388.6613159580156,2388.66901974997,2389.9112383750034,2389.9129523329902,2390.844966833014,2390.8467207910144,2392.6119939159835,allgreen,FinalRedContrast,FinalGreenContrast,2392.6134116660105,2394.2453417080105,4,050526hf,001,2026-05-05_12h22.14.027,priming,,2026.1.3,60.0001049974908,2026-05-05 12h22.14.544040 -0700,
GR_Congruent_GreenCue_GreenProbe_Bottom,GreenGaborBoth.png,RedGaborBoth.png,GreenGaborDisappearBottom.png,RedGaborBoth.png,Green.mp3,green,bottom,97,17,1,,,,1,17,97,27,2394.261156124994,,,,,,,,,,,,,,,,top,,,,,,,,2394.247148290975,2395.078183541016,2395.0783475830103,2400.3278188330005,2400.3353110000025,2401.5779612499755,2401.5798856249894,2402.4450162500143,2402.446653207997,2404.0622014579712,allgreen,FinalRedContrast,FinalGreenContrast,2404.063389540999,2405.9456335830037,2,050526hf,001,2026-05-05_12h22.14.027,priming,,2026.1.3,60.0001049974908,2026-05-05 12h22.14.544040 -0700,
GR_Incongruent_GreenCue_RedProbe_Top,GreenGaborBoth.png,RedGaborBoth.png,GreenGaborBoth.png,RedGaborDisappearTop.png,Green.mp3,green,top,98,18,1,,,,1,18,98,46,2405.961314416025,,,,,,,,,,,,,,,,bottom,,,,,,,,2405.945744208002,2406.7450217080186,2406.7451913749683,2411.9946898749913,2412.002300290973,2413.2447567500058,2413.2469045830076,2415.462162083015,2415.463166915986,2417.812195666018,mostlygreen,FinalRedContrast,FinalGreenContrast,2417.8128873329842,2421.645483708009,2,050526hf,001,2026-05-05_12h22.14.027,priming,,2026.1.3,60.0001049974908,2026-05-05 12h22.14.544040 -0700,
GR_Incongruent_RedCue_GreenProbe_Top,GreenGaborBoth.png,RedGaborBoth.png,GreenGaborDisappearTop.png,RedGaborBoth.png,Red.mp3,red,top,99,19,1,,,,1,19,99,28,2421.661345999979,,,,,,,,,,,,,,,,bottom,,,,,,,,2421.6471273750067,2472.161996791023,2472.1621611249866,2477.411626624991,2477.4192842909833,2478.6616187500185,2478.6634386249934,2479.6789015830145,2479.6796624999843,2481.762528540974,allgreen,FinalRedContrast,FinalGreenContrast,2481.7637946250034,2486.445841583016,2,050526hf,001,2026-05-05_12h22.14.027,priming,,2026.1.3,60.0001049974908,2026-05-05 12h22.14.544040 -0700,
GR_Congruent_RedCue_RedProbe_Bottom,GreenGaborBoth.png,RedGaborBoth.png,GreenGaborBoth.png,RedGaborDisappearBottom.png,Red.mp3,red,bottom,100,20,1,,,,1,20,100,33,2486.461580540985,,,,,,,,,,,,,,,,bottom,,,,,,,,2486.445942374994,2487.462262750021,2487.462464458018,2492.711647666001,2492.718471125001,2493.961710750009,2493.963157750026,2494.8786051659845,2494.880046416016,2495.879071125004,allgreen,FinalRedContrast,FinalGreenContrast,2495.880319666001,2497.6790583750117,2,050526hf,001,2026-05-05_12h22.14.027,priming,,2026.1.3,60.0001049974908,2026-05-05 12h22.14.544040 -0700,
GR_Congruent_GreenCue_GreenProbe_Bottom,GreenGaborBoth.png,RedGaborBoth.png,GreenGaborDisappearBottom.png,RedGaborBoth.png,Green.mp3,green,bottom,101,21,1,,,,1,21,101,67,2497.6948655410088,,,,,,,,,,,,,,,,top,,,,,,,,2497.6808814160177,2498.495304415992,2498.4954670830048,2503.7453034159844,2503.7524549160153,2504.995160999999,2504.9968101250124,2505.5955104579916,2505.5971689160215,2506.962655875017,allgreen,FinalRedContrast,FinalGreenContrast,2506.9636504999944,2509.962584041001,2,050526hf,001,2026-05-05_12h22.14.027,priming,,2026.1.3,60.0001049974908,2026-05-05 12h22.14.544040 -0700,
GG_non_riv_catch_GreenCue_GreenProbe_Top,GreenGaborBoth.png,Blank.png,GreenGaborDisappearTop.png,Blank.png,Green.mp3,green,top,102,22,1,,,,1,22,102,78,2509.9783272499917,,,,,,,,,,,,,,,,bottom,,,,,,,,2509.9626810409827,2512.278759000008,2512.2789242499857,2517.5283857909963,2517.5344920409843,2518.778489875025,2518.7800740409875,2520.178782541014,2520.180720166012,2521.2960425830097,allgreen,FinalRedContrast,FinalGreenContrast,2521.297195082996,2522.2458402909688,2,050526hf,001,2026-05-05_12h22.14.027,priming,,2026.1.3,60.0001049974908,2026-05-05 12h22.14.544040 -0700,
GR_Congruent_RedCue_RedProbe_Bottom,GreenGaborBoth.png,RedGaborBoth.png,GreenGaborBoth.png,RedGaborDisappearBottom.png,Red.mp3,red,bottom,103,23,1,,,,1,23,103,41,2522.2617256660014,,,,,,,,,,,,,,,,top,,,,,,,,2522.247512165981,2522.9455211660243,2522.9456826659734,2528.1951565410127,2528.2015727909748,2529.4451839160174,2529.446996707993,2530.9455135409953,2530.9468271660153,2532.5127060830127,allgreen,FinalRedContrast,FinalGreenContrast,2532.5131307910196,2534.862630458025,3,050526hf,001,2026-05-05_12h22.14.027,priming,,2026.1.3,60.0001049974908,2026-05-05 12h22.14.544040 -0700,
GR_Congruent_GreenCue_GreenProbe_Bottom,GreenGaborBoth.png,RedGaborBoth.png,GreenGaborDisappearBottom.png,RedGaborBoth.png,Green.mp3,green,bottom,104,24,1,,,,1,24,104,35,2534.8782873330056,,,,,,,,,,,,,,,,top,,,,,,,,2534.864505833015,2566.478889124992,2566.479052999988,2571.728704500012,2571.735196582973,2572.9785978330183,2572.9807950829854,2574.312398582988,2574.313122958003,2575.2628286660183,allgreen,FinalRedContrast,FinalGreenContrast,2575.263941165991,2577.3628613330075,2,050526hf,001,2026-05-05_12h22.14.027,priming,,2026.1.3,60.0001049974908,2026-05-05 12h22.14.544040 -0700,
GR_Incongruent_RedCue_GreenProbe_Top,GreenGaborBoth.png,RedGaborBoth.png,GreenGaborDisappearTop.png,RedGaborBoth.png,Red.mp3,red,top,105,25,1,,,,1,25,105,36,2577.3786337909987,,,,,,,,,,,,,,,,bottom,,,,,,,,2577.364495916001,2578.1789618749754,2578.179125832976,2583.428631332994,2583.435171165969,2584.678608041024,2584.680824249983,2585.345737333002,2585.3474915410043,2586.5961675409926,allgreen,FinalRedContrast,FinalGreenContrast,2586.5974513330148,2591.1461582499905,5,050526hf,001,2026-05-05_12h22.14.027,priming,,2026.1.3,60.0001049974908,2026-05-05 12h22.14.544040 -0700,
GR_Incongruent_RedCue_GreenProbe_Top,GreenGaborBoth.png,RedGaborBoth.png,GreenGaborDisappearTop.png,RedGaborBoth.png,Red.mp3,red,top,106,26,1,,,,1,26,106,60,2591.1619869999704,,,,,,,,,,,,,,,,bottom,,,,,,,,2591.1462850410026,2591.9957051660167,2591.9958702080185,2597.2453205409693,2597.2517901660176,2598.4953441660036,2598.4970861659967,2599.3623567909817,2599.3633793750196,2600.5962329159956,mostlygreen,FinalRedContrast,FinalGreenContrast,2600.5975886660162,2602.5628649159917,2,050526hf,001,2026-05-05_12h22.14.027,priming,,2026.1.3,60.0001049974908,2026-05-05 12h22.14.544040 -0700,
GR_Congruent_GreenCue_GreenProbe_Bottom,GreenGaborBoth.png,RedGaborBoth.png,GreenGaborDisappearBottom.png,RedGaborBoth.png,Green.mp3,green,bottom,107,27,1,,,,1,27,107,43,2602.578592957987,,,,,,,,,,,,,,,,top,,,,,,,,2602.564712958003,2603.8624585000216,2603.86262249999,2609.112152207992,2609.120398124971,2610.3621756659704,2610.363429333025,2611.9792583750095,2611.981053791009,2613.929577749979,allgreen,FinalRedContrast,FinalGreenContrast,2613.930833457969,2615.996275749989,3,050526hf,001,2026-05-05_12h22.14.027,priming,,2026.1.3,60.0001049974908,2026-05-05 12h22.14.544040 -0700,
GR_Congruent_GreenCue_GreenProbe_Top,GreenGaborBoth.png,RedGaborBoth.png,GreenGaborDisappearTop.png,RedGaborBoth.png,Green.mp3,green,top,108,28,1,,,,1,28,108,66,2616.0121035830234,,,,,,,,,,,,,,,,bottom,,,,,,,,2615.996372499969,2616.712513040984,2616.712677375006,2621.962089165987,2621.9687344579725,2623.212282790977,2623.213877541013,2625.5458979579853,2625.547432499996,2628.9796465000254,allgreen,FinalRedContrast,FinalGreenContrast,2628.980427375005,2632.096425290976,2,050526hf,001,2026-05-05_12h22.14.027,priming,,2026.1.3,60.0001049974908,2026-05-05 12h22.14.544040 -0700,
GR_Incongruent_GreenCue_RedProbe_Bottom,GreenGaborBoth.png,RedGaborBoth.png,GreenGaborBoth.png,RedGaborDisappearBottom.png,Green.mp3,green,bottom,109,29,1,,,,1,29,109,23,2632.1121218330227,,,,,,,,,,,,,,,,top,,,,,,,,2632.096524790977,2653.6292496660026,2653.62941629102,2658.878925375,2658.8863587499945,2660.128865625011,2660.130580457975,2661.346020249999,2661.347789624997,2662.663137540978,allgreen,FinalRedContrast,FinalGreenContrast,2662.664292624977,2665.579659332987,1,050526hf,001,2026-05-05_12h22.14.027,priming,,2026.1.3,60.0001049974908,2026-05-05 12h22.14.544040 -0700,
GR_Congruent_RedCue_RedProbe_Top,GreenGaborBoth.png,RedGaborBoth.png,GreenGaborBoth.png,RedGaborDisappearTop.png,Red.mp3,red,top,110,30,1,,,,1,30,110,0,2665.5955430410104,,,,,,,,,,,,,,,,bottom,,,,,,,,2665.581246000016,2666.49596416601,2666.4961294159875,2671.745784082974,2671.7531799579738,2672.9957830830244,2672.9975301660015,2674.696172625001,2674.69784316601,2675.5299276249716,mostlygreen,FinalRedContrast,FinalGreenContrast,2675.5309974160045,2678.063288916019,2,050526hf,001,2026-05-05_12h22.14.027,priming,,2026.1.3,60.0001049974908,2026-05-05 12h22.14.544040 -0700,
GR_Congruent_GreenCue_GreenProbe_Top,GreenGaborBoth.png,RedGaborBoth.png,GreenGaborDisappearTop.png,RedGaborBoth.png,Green.mp3,green,top,111,31,1,,,,1,31,111,34,2678.078984874999,,,,,,,,,,,,,,,,bottom,,,,,,,,2678.065162957995,2678.846414041007,2678.846610333014,2684.0957700000145,2684.1033448749804,2685.3457894999883,2685.3470032080077,2686.5793967500213,2686.580958332983,2688.763178540976,mostlygreen,FinalRedContrast,FinalGreenContrast,2688.7640807909775,2693.163194582972,2,050526hf,001,2026-05-05_12h22.14.027,priming,,2026.1.3,60.0001049974908,2026-05-05 12h22.14.544040 -0700,
GR_Congruent_RedCue_RedProbe_Bottom,GreenGaborBoth.png,RedGaborBoth.png,GreenGaborBoth.png,RedGaborDisappearBottom.png,Red.mp3,red,bottom,112,32,1,,,,1,32,112,57,2693.1789887910127,,,,,,,,,,,,,,,,top,,,,,,,,2693.1648216249887,2693.7793932500063,2693.7795557079953,2699.029115499987,2699.035891416017,2700.2789909580024,2700.280888875015,2702.612717083015,2702.6147220829735,2704.563331875019,mostlygreen,FinalRedContrast,FinalGreenContrast,2704.564635124989,2705.7134026249987,2,050526hf,001,2026-05-05_12h22.14.027,priming,,2026.1.3,60.0001049974908,2026-05-05 12h22.14.544040 -0700,
GR_Incongruent_GreenCue_RedProbe_Top,GreenGaborBoth.png,RedGaborBoth.png,GreenGaborBoth.png,RedGaborDisappearTop.png,Green.mp3,green,top,113,33,1,,,,1,33,113,54,2705.7290558330133,,,,,,,,,,,,,,,,bottom,,,,,,,,2705.715210540977,2707.8963024580153,2707.8964737909846,2713.145857082971,2713.1534504580195,2714.3958509580116,2714.3975253750104,2715.563093958015,2715.563918165979,2716.696722875,mostlygreen,FinalRedContrast,FinalGreenContrast,2716.697960874997,2717.7966875410057,2,050526hf,001,2026-05-05_12h22.14.027,priming,,2026.1.3,60.0001049974908,2026-05-05 12h22.14.544040 -0700,
GR_Incongruent_GreenCue_RedProbe_Top,GreenGaborBoth.png,RedGaborBoth.png,GreenGaborBoth.png,RedGaborDisappearTop.png,Green.mp3,green,top,114,34,1,,,,1,34,114,38,2717.8124807910062,,,,,,,,,,,,,,,,bottom,,,,,,,,2717.796786165971,2718.4629673329764,2718.463131333003,2723.7125508330064,2723.7189632080263,2724.962834833015,2724.9631667080102,2726.213022415992,2726.2138029580237,2728.5967390409787,mostlygreen,FinalRedContrast,FinalGreenContrast,2728.597686416004,2729.613333291025,2,050526hf,001,2026-05-05_12h22.14.027,priming,,2026.1.3,60.0001049974908,2026-05-05 12h22.14.544040 -0700,
GR_Incongruent_RedCue_GreenProbe_Top,GreenGaborBoth.png,RedGaborBoth.png,GreenGaborDisappearTop.png,RedGaborBoth.png,Red.mp3,red,top,115,35,1,,,,1,35,115,68,2729.629146582971,,,,,,,,,,,,,,,,bottom,,,,,,,,2729.614953875018,2730.096300541016,2730.096466415969,2735.345885415969,2735.3534689579974,2736.5959029580117,2736.597836541012,2737.6631024159724,2737.6646984579857,2739.8801770830178,mostlygreen,FinalRedContrast,FinalGreenContrast,2739.880607625004,2741.3801827079733,3,050526hf,001,2026-05-05_12h22.14.027,priming,,2026.1.3,60.0001049974908,2026-05-05 12h22.14.544040 -0700,
GR_Congruent_RedCue_RedProbe_Top,GreenGaborBoth.png,RedGaborBoth.png,GreenGaborBoth.png,RedGaborDisappearTop.png,Red.mp3,red,top,116,36,1,,,,1,36,116,56,2741.395851999987,,,,,,,,,,,,,,,,bottom,,,,,,,,2741.380280332989,2742.3629217499983,2742.363084750017,2747.6127446250175,2747.6203778330237,2748.862654166005,2748.8644719999866,2749.613024207996,2749.614350666001,2751.3635202079895,mostlyred,FinalRedContrast,FinalGreenContrast,2751.3647752500256,2753.6967873750255,4,050526hf,001,2026-05-05_12h22.14.027,priming,,2026.1.3,60.0001049974908,2026-05-05 12h22.14.544040 -0700,
GR_Congruent_RedCue_RedProbe_Top,GreenGaborBoth.png,RedGaborBoth.png,GreenGaborBoth.png,RedGaborDisappearTop.png,Red.mp3,red,top,117,37,1,,,,1,37,117,8,2753.7126255829935,,,,,,,,,,,,,,,,bottom,,,,,,,,2753.696889957995,2755.0466567080002,2755.046837083006,2760.2960024159984,2760.302668957971,2761.5460009999806,2761.547529415984,2762.4297527910094,2762.43113225,2764.4467654579785,mostlyred,FinalRedContrast,FinalGreenContrast,2764.4477339999867,2766.5468644159846,3,050526hf,001,2026-05-05_12h22.14.027,priming,,2026.1.3,60.0001049974908,2026-05-05 12h22.14.544040 -0700,
GR_Incongruent_GreenCue_RedProbe_Bottom,GreenGaborBoth.png,RedGaborBoth.png,GreenGaborBoth.png,RedGaborDisappearBottom.png,Green.mp3,green,bottom,118,38,1,,,,1,38,118,7,2766.562616624986,,,,,,,,,,,,,,,,top,,,,,,,,2766.548745499982,2767.4295748749864,2767.429740499996,2772.6794724999927,2772.6871452080086,2773.9294496660004,2773.930861415982,2775.229934290983,2775.2315747499815,2776.913565374969,mostlyred,FinalRedContrast,FinalGreenContrast,2776.914670999977,2779.0139770410024,2,050526hf,001,2026-05-05_12h22.14.027,priming,,2026.1.3,60.0001049974908,2026-05-05 12h22.14.544040 -0700,
GG_non_riv_catch_RedCue_GreenProbe_Bottom,GreenGaborBoth.png,Blank.png,GreenGaborDisappearBottom.png,Blank.png,Red.mp3,red,bottom,119,39,1,,,,1,39,119,77,2779.02944199997,,,,,,,,,,,,,,,,top,,,,,,,,2779.015533416008,2779.7297577909776,2779.72992100002,2784.9794425829896,2784.986215291021,2786.512991708005,2786.5142549159937,2787.2799598330166,2787.280908915971,2788.1802519159974,mostlygreen,FinalRedContrast,FinalGreenContrast,2788.1812692909734,2789.880272249982,2,050526hf,001,2026-05-05_12h22.14.027,priming,,2026.1.3,60.0001049974908,2026-05-05 12h22.14.544040 -0700,
GR_Incongruent_GreenCue_RedProbe_Bottom,GreenGaborBoth.png,RedGaborBoth.png,GreenGaborBoth.png,RedGaborDisappearBottom.png,Green.mp3,green,bottom,120,40,1,,,,1,40,120,31,2789.89604349999,,,,,,,,,,,,,,,,top,,,,,,,,2789.882318665972,2800.5131484160083,2800.513333540992,2805.7629052500124,2805.771060250001,2807.012979540974,2807.014779374993,2809.2466629580013,2809.2483777080197,2810.397168290976,allgreen,FinalRedContrast,FinalGreenContrast,2810.3984026659746,2812.830349207972,1,050526hf,001,2026-05-05_12h22.14.027,priming,,2026.1.3,60.0001049974908,2026-05-05 12h22.14.544040 -0700,
GR_Incongruent_GreenCue_RedProbe_Bottom,GreenGaborBoth.png,RedGaborBoth.png,GreenGaborBoth.png,RedGaborDisappearBottom.png,Green.mp3,green,bottom,121,41,1,,,,1,41,121,55,2812.8462065000203,,,,,,,,,,,,,,,,top,,,,,,,,2812.8304479999933,2813.613255458011,2813.6134206249844,2818.8632639159914,2818.871949332999,2820.1128607499995,2820.1150244579767,2820.880237083009,2820.881276916014,2822.7637194999843,allgreen,FinalRedContrast,FinalGreenContrast,2822.7649576659896,2824.0142090410227,2,050526hf,001,2026-05-05_12h22.14.027,priming,,2026.1.3,60.0001049974908,2026-05-05 12h22.14.544040 -0700,
GR_Congruent_RedCue_RedProbe_Bottom,GreenGaborBoth.png,RedGaborBoth.png,GreenGaborBoth.png,RedGaborDisappearBottom.png,Red.mp3,red,bottom,122,42,1,,,,1,42,122,17,2824.0295357499854,,,,,,,,,,,,,,,,top,,,,,,,,2824.015790375008,2827.474025250005,2827.4741899159853,2832.712920333026,2832.719530207978,2833.962925166008,2833.96425762499,2834.72994499997,2834.731750332983,2835.747177791025,mostlygreen,FinalRedContrast,FinalGreenContrast,2835.7481722909724,2836.64719691599,2,050526hf,001,2026-05-05_12h22.14.027,priming,,2026.1.3,60.0001049974908,2026-05-05 12h22.14.544040 -0700,
GR_Congruent_RedCue_RedProbe_Bottom,GreenGaborBoth.png,RedGaborBoth.png,GreenGaborBoth.png,RedGaborDisappearBottom.png,Red.mp3,red,bottom,123,43,1,,,,1,43,123,65,2836.6629462079727,,,,,,,,,,,,,,,,top,,,,,,,,2836.647306124971,2837.64672650001,2837.646894083009,2842.89636795799,2842.9028469159966,2844.14641175,2844.14809433301,2845.8306799579877,2845.8314296249882,2849.380481250002,evensplit,FinalRedContrast,FinalGreenContrast,2849.3817161250045,2851.413866915973,2,050526hf,001,2026-05-05_12h22.14.027,priming,,2026.1.3,60.0001049974908,2026-05-05 12h22.14.544040 -0700,
GR_Congruent_GreenCue_GreenProbe_Top,GreenGaborBoth.png,RedGaborBoth.png,GreenGaborDisappearTop.png,RedGaborBoth.png,Green.mp3,green,top,124,44,1,,,,1,44,124,58,2851.4296514160233,,,,,,,,,,,,,,,,bottom,,,,,,,,2851.4157629580004,2852.230018207978,2852.2301846659975,2857.4797551250085,2857.487952040974,2858.729643040977,2858.7317502080114,2860.1467798330123,2860.148583124974,2861.9806083330186,mostlygreen,FinalRedContrast,FinalGreenContrast,2861.9818154579843,2864.897237957979,1,050526hf,001,2026-05-05_12h22.14.027,priming,,2026.1.3,60.0001049974908,2026-05-05 12h22.14.544040 -0700,
GR_Congruent_GreenCue_GreenProbe_Top,GreenGaborBoth.png,RedGaborBoth.png,GreenGaborDisappearTop.png,RedGaborBoth.png,Green.mp3,green,top,125,45,1,,,,1,45,125,18,2864.912933124986,,,,,,,,,,,,,,,,bottom,,,,,,,,2864.8973362909746,2866.9400360829895,2866.940204708022,2872.179719540989,2872.1862532499945,2873.429804500018,2873.431782166008,2875.6970687910216,2875.698952250008,2877.564031250018,mostlygreen,FinalRedContrast,FinalGreenContrast,2877.5652882499853,2882.1640132910106,2,050526hf,001,2026-05-05_12h22.14.027,priming,,2026.1.3,60.0001049974908,2026-05-05 12h22.14.544040 -0700,
GR_Incongruent_GreenCue_RedProbe_Bottom,GreenGaborBoth.png,RedGaborBoth.png,GreenGaborBoth.png,RedGaborDisappearBottom.png,Green.mp3,green,bottom,126,46,1,,,,1,46,126,63,2882.1797860409715,,,,,,,,,,,,,,,,top,,,,,,,,2882.1641537909745,2883.030295374978,2883.030459832982,2888.2798032910214,2888.286230665981,2889.529886291013,2889.5314025409753,2890.4969637910253,2890.498330582981,2891.7139755829703,mostlygreen,FinalRedContrast,FinalGreenContrast,2891.7151455829735,2893.1473294160096,2,050526hf,001,2026-05-05_12h22.14.027,priming,,2026.1.3,60.0001049974908,2026-05-05 12h22.14.544040 -0700,
GR_Congruent_RedCue_RedProbe_Bottom,GreenGaborBoth.png,RedGaborBoth.png,GreenGaborBoth.png,RedGaborDisappearBottom.png,Red.mp3,red,bottom,127,47,1,,,,1,47,127,49,2893.1631360829924,,,,,,,,,,,,,,,,top,,,,,,,,2893.1489887909847,2893.896859625005,2893.8970232499996,2899.1464985830244,2899.1529752080096,2900.396423708007,2900.3982446250156,2902.597305416013,2902.5982615000103,2903.647320875025,mostlygreen,FinalRedContrast,FinalGreenContrast,2903.648495499976,2904.897473582998,2,050526hf,001,2026-05-05_12h22.14.027,priming,,2026.1.3,60.0001049974908,2026-05-05 12h22.14.544040 -0700,
RR_non_riv_catch_RedCue_RedProbe_Top,Blank.png,RedGaborBoth.png,Blank.png,RedGaborDisappearTop.png,Red.mp3,red,top,128,48,1,,,,1,48,128,72,2904.913261333015,,,,,,,,,,,,,,,,bottom,,,,,,,,2904.8975716659916,2905.5137417080114,2905.513909125002,2910.7632974159787,2910.769980041019,2912.0133074999903,2912.015092416026,2913.413670165988,2913.4153843750246,2915.3640732080094,allred,FinalRedContrast,FinalGreenContrast,2915.365353916015,2917.6145331250154,4,050526hf,001,2026-05-05_12h22.14.027,priming,,2026.1.3,60.0001049974908,2026-05-05 12h22.14.544040 -0700,
GR_Incongruent_RedCue_GreenProbe_Top,GreenGaborBoth.png,RedGaborBoth.png,GreenGaborDisappearTop.png,RedGaborBoth.png,Red.mp3,red,top,129,49,1,,,,1,49,129,52,2917.6299096660223,,,,,,,,,,,,,,,,bottom,,,,,,,,2917.6146321250126,2918.846995291009,2918.8471583329956,2924.0966348749935,2924.1030656250077,2925.3465313329943,2925.3480935000116,2926.3472096250043,2926.3488280409947,2927.4307645829977,mostlyred,FinalRedContrast,FinalGreenContrast,2927.4319562499877,2928.780850125011,2,050526hf,001,2026-05-05_12h22.14.027,priming,,2026.1.3,60.0001049974908,2026-05-05 12h22.14.544040 -0700,
RR_non_riv_catch_GreenCue_RedProbe_Bottom,Blank.png,RedGaborBoth.png,Blank.png,RedGaborDisappearBottom.png,Green.mp3,green,bottom,130,50,1,,,,1,50,130,75,2928.7965809159796,,,,,,,,,,,,,,,,top,,,,,,,,2928.7827370410087,2929.3636821659748,2929.363848207984,2934.613380624971,2934.6189651659806,2935.863427666016,2935.865023540973,2937.83051900001,2937.832092207973,2939.597573750012,mostlyred,FinalRedContrast,FinalGreenContrast,2939.5988400829956,2949.5975728749763,3,050526hf,001,2026-05-05_12h22.14.027,priming,,2026.1.3,60.0001049974908,2026-05-05 12h22.14.544040 -0700,
GR_Incongruent_RedCue_GreenProbe_Top,GreenGaborBoth.png,RedGaborBoth.png,GreenGaborDisappearTop.png,RedGaborBoth.png,Red.mp3,red,top,131,51,1,,,,1,51,131,44,2949.6134473750135,,,,,,,,,,,,,,,,bottom,,,,,,,,2949.59924125002,2950.5137606660137,2950.513923708,2955.763357500022,2955.771765500016,2957.013456624991,2957.014901000017,2958.4305691659683,2958.4313492079964,2960.1810710409773,allgreen,FinalRedContrast,FinalGreenContrast,2960.1822956249816,2961.6146396250115,2,050526hf,001,2026-05-05_12h22.14.027,priming,,2026.1.3,60.0001049974908,2026-05-05 12h22.14.544040 -0700,
GR_Congruent_RedCue_RedProbe_Top,GreenGaborBoth.png,RedGaborBoth.png,GreenGaborBoth.png,RedGaborDisappearTop.png,Red.mp3,red,top,132,52,1,,,,1,52,132,24,2961.6299642910017,,,,,,,,,,,,,,,,bottom,,,,,,,,2961.6147362500196,2962.163847582997,2962.164011833025,2967.4134644999867,2967.421050374978,2968.6634947499842,2968.6649852910195,2969.963915958011,2969.9655519999797,2974.0644474580185,allgreen,FinalRedContrast,FinalGreenContrast,2974.0650080409832,2975.631039040978,1,050526hf,001,2026-05-05_12h22.14.027,priming,,2026.1.3,60.0001049974908,2026-05-05 12h22.14.544040 -0700,
GR_Congruent_RedCue_RedProbe_Top,GreenGaborBoth.png,RedGaborBoth.png,GreenGaborBoth.png,RedGaborDisappearTop.png,Red.mp3,red,top,133,53,1,,,,1,53,133,40,2975.6468567500124,,,,,,,,,,,,,,,,bottom,,,,,,,,2975.631137707969,2976.4972102909815,2976.4973738749977,2981.7469112079707,2981.754517125024,2982.996922415972,2982.998628625006,2984.030690708023,2984.0314820000203,2985.5145079159993,evensplit,FinalRedContrast,FinalGreenContrast,2985.5156943330076,2986.7811231249943,2,050526hf,001,2026-05-05_12h22.14.027,priming,,2026.1.3,60.0001049974908,2026-05-05 12h22.14.544040 -0700,
GR_Incongruent_RedCue_GreenProbe_Bottom,GreenGaborBoth.png,RedGaborBoth.png,GreenGaborDisappearBottom.png,RedGaborBoth.png,Red.mp3,red,bottom,134,54,1,,,,1,54,134,21,2986.7968406659784,,,,,,,,,,,,,,,,top,,,,,,,,2986.781240665994,2999.380551957991,2999.3807174579706,3004.6301439579693,3004.637787499989,3005.8803870410193,3005.8822258330183,3007.464052291005,3007.4656495000236,3008.481729540974,mostlygreen,FinalRedContrast,FinalGreenContrast,3008.4821275830036,3009.697912624979,2,050526hf,001,2026-05-05_12h22.14.027,priming,,2026.1.3,60.0001049974908,2026-05-05 12h22.14.544040 -0700,
GR_Incongruent_GreenCue_RedProbe_Bottom,GreenGaborBoth.png,RedGaborBoth.png,GreenGaborBoth.png,RedGaborDisappearBottom.png,Green.mp3,green,bottom,135,55,1,,,,1,55,135,47,3009.7136101659853,,,,,,,,,,,,,,,,top,,,,,,,,3009.7000006660237,3010.3144425409846,3010.3146208749968,3015.5637254579924,3015.571335708024,3016.813719708007,3016.815623125003,3017.7307504999917,3017.7326483330107,3019.2978449999937,mostlygreen,FinalRedContrast,FinalGreenContrast,3019.2991279580165,3021.2146414580056,2,050526hf,001,2026-05-05_12h22.14.027,priming,,2026.1.3,60.0001049974908,2026-05-05 12h22.14.544040 -0700,
GR_Incongruent_GreenCue_RedProbe_Top,GreenGaborBoth.png,RedGaborBoth.png,GreenGaborBoth.png,RedGaborDisappearTop.png,Green.mp3,green,top,136,56,1,,,,1,56,136,70,3021.230292790977,,,,,,,,,,,,,,,,bottom,,,,,,,,3021.214751583,3023.6139857500093,3023.6141477909987,3028.8636818329687,3028.871264416026,3030.1137037500157,3030.115741375019,3031.1641151250224,3031.1660437079845,3032.7312307499815,mostlygreen,FinalRedContrast,FinalGreenContrast,3032.732219040976,3034.581185957999,2,050526hf,001,2026-05-05_12h22.14.027,priming,,2026.1.3,60.0001049974908,2026-05-05 12h22.14.544040 -0700,
GR_Congruent_GreenCue_GreenProbe_Top,GreenGaborBoth.png,RedGaborBoth.png,GreenGaborDisappearTop.png,RedGaborBoth.png,Green.mp3,green,top,137,57,1,,,,1,57,137,26,3034.5969280829886,,,,,,,,,,,,,,,,bottom,,,,,,,,3034.581328957982,3035.3807331660064,3035.380900957971,3040.6304951250204,3040.6383393330034,3041.8804611249943,3041.882368499995,3043.7808926249854,3043.7824097080156,3046.1647062079865,mostlygreen,FinalRedContrast,FinalGreenContrast,3046.165431624977,3049.4979628750007,2,050526hf,001,2026-05-05_12h22.14.027,priming,,2026.1.3,60.0001049974908,2026-05-05 12h22.14.544040 -0700,
