label,LstartingStim,RstartingStim,LvisualStim,RvisualStim,audioCue,visualCue,probe_loc,thisN,thisTrialN,thisRepN,staircase.thisTrialN,staircase.stepSize,staircase.intensity,trials.thisRepN,trials.thisTrialN,trials.thisN,trials.thisIndex,thisRow.t,notes,piloting,stim offset,continue_resp.keys,continue_resp.rt,continue_resp.duration,fixation.started,fixation.stopped,greenContrast,redContrast,adjusted_contrast.started,adjusted_contrast.stopped,staircase_response.started,staircase_response.stopped,stair_response,probe_response,staircase.response,prevTrial,isRed,isReversal,cumReversal,contrastArray,contrastAverage,start_trial.started,start_trial.stopped,cue.started,cue.stopped,probe.started,probe.stopped,probe_response.started,probe_response.stopped,subjective_response.started,subjective_response.stopped,subj_response,RedContrast,GreenContrast,vividness_response.started,vividness_response.stopped,vivid_response,participant,session,date,expName,expVersion,psychopyVersion,frameRate,expStart,
,,,,,,,,,,,,,,,,,,,,False,0.30899999999999994,,,,,,,,,,,,,,,,,,,,,,,,,,,,,,,,,,,,,050626kl,001,2026-05-06_10h20.34.842,priming,,2026.1.3,60.09747822981398,2026-05-06 10h20.35.192291 -0700,
,,,,,,,,,,,,,,,,,,,,,,space,26.46900316600022,None,,,,,,,,,,,,,,,,,,,,,,,,,,,,,,,,,,050626kl,001,2026-05-06_10h20.34.842,priming,,2026.1.3,60.09747822981398,2026-05-06 10h20.35.192291 -0700,
,,,,,,,,,,,0,0.2,0.5,,,,,36.08321995799997,,,,,,,36.06620766700007,37.0666362500001,0.5,0.5,37.07689049999999,38.81657008299999,38.824068875000194,42.850979625000036,mostlygreen,green,0,1000,0,0,0,[],0,,,,,,,,,,,,,,,,,050626kl,001,2026-05-06_10h20.34.842,priming,,2026.1.3,60.09747822981398,2026-05-06 10h20.35.192291 -0700,
,,,,,,,,,,,1,0.1,0.7,,,,,42.86655487500002,,,,,,,42.85137120800027,43.849984917000256,0.30000000000000004,0.7,43.85526299999992,45.59995375000017,45.601553917000274,46.80087429200012,allred,red,1,0,1,1,1,[],0,,,,,,,,,,,,,,,,,050626kl,001,2026-05-06_10h20.34.842,priming,,2026.1.3,60.09747822981398,2026-05-06 10h20.35.192291 -0700,
,,,,,,,,,,,2,0.1,0.6,,,,,46.81653237499995,,,,,,,46.80115895800009,47.80001633300026,0.4,0.6,47.80426483300016,49.55002195800034,49.55170241700034,51.25086054200028,mostlyred,red,1,1,1,0,1,[],0,,,,,,,,,,,,,,,,,050626kl,001,2026-05-06_10h20.34.842,priming,,2026.1.3,60.09747822981398,2026-05-06 10h20.35.192291 -0700,
,,,,,,,,,,,3,0.1,0.5,,,,,51.26659150000023,,,,,,,51.251190792000216,52.24996991700027,0.5,0.5,52.25570441700029,54.00003541700016,54.00165508300006,55.45079758300017,mostlyred,red,1,1,1,0,1,[],0,,,,,,,,,,,,,,,,,050626kl,001,2026-05-06_10h20.34.842,priming,,2026.1.3,60.09747822981398,2026-05-06 10h20.35.192291 -0700,
,,,,,,,,,,,4,0.1,0.4,,,,,55.46652341700019,,,,,,,55.45128308300036,56.44997887499994,0.6,0.4,56.45386337500031,58.19997645800004,58.2017070830002,59.334820458000195,mostlygreen,green,0,1,0,1,2,[],0,,,,,,,,,,,,,,,,,050626kl,001,2026-05-06_10h20.34.842,priming,,2026.1.3,60.09747822981398,2026-05-06 10h20.35.192291 -0700,
,,,,,,,,,,,5,0.1,0.5,,,,,59.34985195800027,,,,,,,59.33511787499992,60.33330416700028,0.5,0.5,60.33754187500017,62.08333491700023,62.08538479200024,62.73414741700026,mostlygreen,green,0,0,0,0,2,[],0,,,,,,,,,,,,,,,,,050626kl,001,2026-05-06_10h20.34.842,priming,,2026.1.3,60.09747822981398,2026-05-06 10h20.35.192291 -0700,
,,,,,,,,,,,6,0.05,0.6,,,,,62.74984587500012,,,,,,,62.7344094580003,63.73328850000007,0.4,0.6,63.73699716700003,65.4834175420001,65.48498054200036,67.23418662500035,mostlyred,red,1,0,1,1,3,[],0,,,,,,,,,,,,,,,,,050626kl,001,2026-05-06_10h20.34.842,priming,,2026.1.3,60.09747822981398,2026-05-06 10h20.35.192291 -0700,
,,,,,,,,,,,7,0.05,0.5499999999999999,,,,,67.24984787500034,,,,,,,67.23466212500034,68.23331320800025,0.45000000000000007,0.5499999999999999,68.23839770800032,69.98338287500019,69.98496525000019,70.90078125000036,mostlygreen,green,0,1,0,1,4,[],0,,,,,,,,,,,,,,,,,050626kl,001,2026-05-06_10h20.34.842,priming,,2026.1.3,60.09747822981398,2026-05-06 10h20.35.192291 -0700,
,,,,,,,,,,,8,0.025,0.6,,,,,70.91652658300018,,,,,,,70.9010477920001,71.89994449999995,0.4,0.6,71.90407979200018,73.65000291700017,73.65162116700003,74.46760508300031,mostlyred,red,1,0,1,1,5,[],0,,,,,,,,,,,,,,,,,050626kl,001,2026-05-06_10h20.34.842,priming,,2026.1.3,60.09747822981398,2026-05-06 10h20.35.192291 -0700,
,,,,,,,,,,,9,0.025,0.575,,,,,74.48327175000031,,,,,,,74.46792762500036,75.46664108300001,0.42500000000000004,0.575,75.47083166700031,77.2165583330002,77.21846558300012,79.21729683300009,mostlyred,red,1,1,1,0,5,[],0,,,,,,,,,,,,,,,,,050626kl,001,2026-05-06_10h20.34.842,priming,,2026.1.3,60.09747822981398,2026-05-06 10h20.35.192291 -0700,
,,,,,,,,,,,10,0.025,0.5499999999999999,,,,,79.23313583300023,,,,,,,79.21780195800011,80.21655608300034,0.45000000000000007,0.5499999999999999,80.22140970800001,81.96660650000013,81.96844937500009,83.15115104200004,mostlyred,red,1,1,1,0,5,[],0,,,,,,,,,,,,,,,,,050626kl,001,2026-05-06_10h20.34.842,priming,,2026.1.3,60.09747822981398,2026-05-06 10h20.35.192291 -0700,
,,,,,,,,,,,11,0.025,0.5249999999999999,,,,,83.16649154200013,,,,,,,83.15140550000024,84.14987016700024,0.4750000000000001,0.5249999999999999,84.15336100000013,85.89985933300022,85.90178675000016,88.41758341700006,mostlyred,red,1,1,1,0,5,[],0,,,,,,,,,,,,,,,,,050626kl,001,2026-05-06_10h20.34.842,priming,,2026.1.3,60.09747822981398,2026-05-06 10h20.35.192291 -0700,
,,,,,,,,,,,12,0.025,0.4999999999999999,,,,,88.43328262500017,,,,,,,88.4180805420001,89.41651345800028,0.5000000000000001,0.4999999999999999,89.42240987500008,91.1665397920001,91.16834379200009,93.5339022080002,mostlygreen,green,0,1,0,1,6,[0.4999999999999999],0.4999999999999999,,,,,,,,,,,,,,,,,050626kl,001,2026-05-06_10h20.34.842,priming,,2026.1.3,60.09747822981398,2026-05-06 10h20.35.192291 -0700,
,,,,,,,,,,,13,0.025,0.5249999999999999,,,,,93.54977820800013,,,,,,,93.5341695420002,94.53326558300023,0.4750000000000001,0.5249999999999999,94.53793854200012,96.28322933300024,96.28519587500023,97.00057466700036,mostlyred,red,1,0,1,1,7,"[0.4999999999999999, 0.5249999999999999]",0.5125,,,,,,,,,,,,,,,,,050626kl,001,2026-05-06_10h20.34.842,priming,,2026.1.3,60.09747822981398,2026-05-06 10h20.35.192291 -0700,
,,,,,,,,,,,14,0.025,0.4999999999999999,,,,,97.01643120800009,,,,,,,97.00082720799992,97.99989458300024,0.5000000000000001,0.4999999999999999,98.00373016699996,99.74985712500029,99.75181666700018,100.65059520800014,mostlygreen,green,0,1,0,1,8,"[0.4999999999999999, 0.5249999999999999, 0.4999999999999999]",0.5083333333333333,,,,,,,,,,,,,,,,,050626kl,001,2026-05-06_10h20.34.842,priming,,2026.1.3,60.09747822981398,2026-05-06 10h20.35.192291 -0700,
,,,,,,,,,,,15,0.025,0.5249999999999999,,,,,100.66656700000021,,,,,,,100.651114667,101.64983687500035,0.4750000000000001,0.5249999999999999,101.65485929200031,103.39984662500001,103.40183737500001,106.13414845800025,mostlyred,red,1,0,1,1,9,"[0.4999999999999999, 0.5249999999999999, 0.4999999999999999, 0.5249999999999999]",0.5125,,,,,,,,,,,,,,,,,050626kl,001,2026-05-06_10h20.34.842,priming,,2026.1.3,60.09747822981398,2026-05-06 10h20.35.192291 -0700,
,,,,,,,,,,,16,0.025,0.4999999999999999,,,,,106.14987775000009,,,,,,,106.13448675000018,107.13319720800018,0.5000000000000001,0.4999999999999999,107.1383726250001,108.88330529199993,108.88528700000006,110.51731866699993,mostlyred,red,1,1,1,0,9,"[0.4999999999999999, 0.5249999999999999, 0.4999999999999999, 0.5249999999999999]",0.5125,,,,,,,,,,,,,,,,,050626kl,001,2026-05-06_10h20.34.842,priming,,2026.1.3,60.09747822981398,2026-05-06 10h20.35.192291 -0700,
,,,,,,,,,,,17,0.025,0.47499999999999987,,,,,110.5332222080001,,,,,,,110.51757962500005,111.51677337499996,0.5250000000000001,0.47499999999999987,111.52039429200022,113.26665495800034,113.26839295800028,115.53413375000036,mostlyred,red,1,1,1,0,9,"[0.4999999999999999, 0.5249999999999999, 0.4999999999999999, 0.5249999999999999]",0.5125,,,,,,,,,,,,,,,,,050626kl,001,2026-05-06_10h20.34.842,priming,,2026.1.3,60.09747822981398,2026-05-06 10h20.35.192291 -0700,
,,,,,,,,,,,18,0.025,0.44999999999999984,,,,,115.5498995830003,,,,,,,115.53485495800032,116.53330533300004,0.5500000000000002,0.44999999999999984,116.54010150000022,118.2833028330001,118.2852723330002,119.36775699999998,mostlygreen,green,0,1,0,1,10,"[0.4999999999999999, 0.5249999999999999, 0.4999999999999999, 0.5249999999999999, 0.44999999999999984]",0.4999999999999999,,,,,,,,,,,,,,,,,050626kl,001,2026-05-06_10h20.34.842,priming,,2026.1.3,60.09747822981398,2026-05-06 10h20.35.192291 -0700,
,,,,,,,,,,,19,0.025,0.47499999999999987,,,,,119.38341916700028,,,,,,,119.36808633300006,120.36673320800037,0.5250000000000001,0.47499999999999987,120.37082358299995,122.11669679200031,122.11854300000005,124.28406737500018,mostlygreen,green,0,0,0,0,10,"[0.4999999999999999, 0.5249999999999999, 0.4999999999999999, 0.5249999999999999, 0.44999999999999984]",0.4999999999999999,,,,,,,,,,,,,,,,,050626kl,001,2026-05-06_10h20.34.842,priming,,2026.1.3,60.09747822981398,2026-05-06 10h20.35.192291 -0700,
,,,,,,,,,,,20,0.025,0.4999999999999999,,,,,124.2999705000002,,,,,,,124.28458720800018,125.2834505830001,0.5000000000000001,0.4999999999999999,125.28973662499993,127.03334274999997,127.03533091700001,128.3007267500002,mostlyred,red,1,0,1,1,11,"[0.4999999999999999, 0.5249999999999999, 0.4999999999999999, 0.5249999999999999, 0.44999999999999984, 0.4999999999999999]",0.49999999999999994,,,,,,,,,,,,,,,,,050626kl,001,2026-05-06_10h20.34.842,priming,,2026.1.3,60.09747822981398,2026-05-06 10h20.35.192291 -0700,
,,,,,,,,,,,21,0.025,0.47499999999999987,,,,,128.31657791700036,,,,,,,128.30104608300007,129.2999605,0.5250000000000001,0.47499999999999987,129.30372050000005,131.050002167,131.05194604200005,132.30071308300012,mostlyred,red,1,1,1,0,11,"[0.4999999999999999, 0.5249999999999999, 0.4999999999999999, 0.5249999999999999, 0.44999999999999984, 0.4999999999999999]",0.49999999999999994,,,,,,,,,,,,,,,,,050626kl,001,2026-05-06_10h20.34.842,priming,,2026.1.3,60.09747822981398,2026-05-06 10h20.35.192291 -0700,
,,,,,,,,,,,22,0.025,0.44999999999999984,,,,,132.31656808300022,,,,,,,132.30104995800002,133.300022292,0.5500000000000002,0.44999999999999984,133.30373545800012,135.04998270800024,135.05188595800018,135.71736654200004,mostlygreen,green,0,1,0,1,12,"[0.4999999999999999, 0.5249999999999999, 0.4999999999999999, 0.5249999999999999, 0.44999999999999984, 0.4999999999999999, 0.44999999999999984]",0.49285714285714277,,,,,,,,,,,,,,,,,050626kl,001,2026-05-06_10h20.34.842,priming,,2026.1.3,60.09747822981398,2026-05-06 10h20.35.192291 -0700,
,,,,,,,,,,,23,0.025,0.47499999999999987,,,,,135.73330187500005,,,,,,,135.71765566700014,136.71665429199993,0.5250000000000001,0.47499999999999987,136.72143679200008,138.4666994170002,138.46894087500004,138.96743037500028,mostlyred,red,1,0,1,1,13,"[0.4999999999999999, 0.5249999999999999, 0.4999999999999999, 0.5249999999999999, 0.44999999999999984, 0.4999999999999999, 0.44999999999999984, 0.47499999999999987]",0.49062499999999987,,,,,,,,,,,,,,,,,050626kl,001,2026-05-06_10h20.34.842,priming,,2026.1.3,60.09747822981398,2026-05-06 10h20.35.192291 -0700,
,,,,,,,,,,,24,0.025,0.44999999999999984,,,,,138.9832395000003,,,,,,,138.9677385,139.96666037500017,0.5500000000000002,0.44999999999999984,139.9711002920003,141.7166889580003,141.71852879200014,143.15073862500003,mostlyred,red,1,1,1,0,13,"[0.4999999999999999, 0.5249999999999999, 0.4999999999999999, 0.5249999999999999, 0.44999999999999984, 0.4999999999999999, 0.44999999999999984, 0.47499999999999987]",0.49062499999999987,,,,,,,,,,,,,,,,,050626kl,001,2026-05-06_10h20.34.842,priming,,2026.1.3,60.09747822981398,2026-05-06 10h20.35.192291 -0700,
,,,,,,,,,,,25,0.025,0.4249999999999998,,,,,143.16658825000013,,,,,,,143.151222125,144.1500032920003,0.5750000000000002,0.4249999999999998,144.1537880830001,145.90010437499996,145.902187917,146.58410779199994,mostlygreen,green,0,1,0,1,14,"[0.4999999999999999, 0.5249999999999999, 0.4999999999999999, 0.5249999999999999, 0.44999999999999984, 0.4999999999999999, 0.44999999999999984, 0.47499999999999987, 0.4249999999999998]",0.48333333333333317,,,,,,,,,,,,,,,,,050626kl,001,2026-05-06_10h20.34.842,priming,,2026.1.3,60.09747822981398,2026-05-06 10h20.35.192291 -0700,
,,,,,,,,,,,26,0.025,0.44999999999999984,,,,,146.5999310000002,,,,,,,146.5843801670003,147.58342900000025,0.5500000000000002,0.44999999999999984,147.58805937500028,149.3333052920002,149.33519729199998,150.90067983300014,mostlygreen,green,0,0,0,0,14,"[0.4999999999999999, 0.5249999999999999, 0.4999999999999999, 0.5249999999999999, 0.44999999999999984, 0.4999999999999999, 0.44999999999999984, 0.47499999999999987, 0.4249999999999998]",0.48333333333333317,,,,,,,,,,,,,,,,,050626kl,001,2026-05-06_10h20.34.842,priming,,2026.1.3,60.09747822981398,2026-05-06 10h20.35.192291 -0700,
,,,,,,,,,,,27,0.025,0.47499999999999987,,,,,150.91658633299994,,,,,,,150.90097487499997,151.9000489580003,0.5250000000000001,0.47499999999999987,151.9056961250003,153.65032858299992,153.65162341700034,154.90069975000006,mostlyred,red,1,0,1,1,15,"[0.4999999999999999, 0.5249999999999999, 0.4999999999999999, 0.5249999999999999, 0.44999999999999984, 0.4999999999999999, 0.44999999999999984, 0.47499999999999987, 0.4249999999999998, 0.47499999999999987]",0.4824999999999998,,,,,,,,,,,,,,,,,050626kl,001,2026-05-06_10h20.34.842,priming,,2026.1.3,60.09747822981398,2026-05-06 10h20.35.192291 -0700,
,,,,,,,,,,,28,0.025,0.44999999999999984,,,,,154.91659358300012,,,,,,,154.90122066699996,155.89998487499997,0.5500000000000002,0.44999999999999984,155.90381670800025,157.65006795800036,157.65205916700006,160.11740416700013,mostlyred,red,1,1,1,0,15,"[0.4999999999999999, 0.5249999999999999, 0.4999999999999999, 0.5249999999999999, 0.44999999999999984, 0.4999999999999999, 0.44999999999999984, 0.47499999999999987, 0.4249999999999998, 0.47499999999999987]",0.4824999999999998,,,,,,,,,,,,,,,,,050626kl,001,2026-05-06_10h20.34.842,priming,,2026.1.3,60.09747822981398,2026-05-06 10h20.35.192291 -0700,
,,,,,,,,,,,29,0.025,0.4249999999999998,,,,,160.13326404200006,,,,,,,160.11783808300015,161.11680304200036,0.5750000000000002,0.4249999999999998,161.123081792,162.86683575000006,162.86866420800015,165.800990792,mostlygreen,green,0,1,0,1,16,"[0.4999999999999999, 0.5249999999999999, 0.4999999999999999, 0.5249999999999999, 0.44999999999999984, 0.4999999999999999, 0.44999999999999984, 0.47499999999999987, 0.4249999999999998, 0.47499999999999987, 0.4249999999999998]",0.4772727272727271,,,,,,,,,,,,,,,,,050626kl,001,2026-05-06_10h20.34.842,priming,,2026.1.3,60.09747822981398,2026-05-06 10h20.35.192291 -0700,
,,,,,,,,,,,30,0.025,0.44999999999999984,,,,,165.81672533300025,,,,,,,165.80156479200014,166.80009816700021,0.5500000000000002,0.44999999999999984,166.80469716700009,168.55020637500002,168.55212825000035,173.55086383300022,mostlyred,red,1,0,1,1,17,"[0.4999999999999999, 0.5249999999999999, 0.4999999999999999, 0.5249999999999999, 0.44999999999999984, 0.4999999999999999, 0.44999999999999984, 0.47499999999999987, 0.4249999999999998, 0.47499999999999987, 0.4249999999999998, 0.44999999999999984]",0.47499999999999987,,,,,,,,,,,,,,,,,050626kl,001,2026-05-06_10h20.34.842,priming,,2026.1.3,60.09747822981398,2026-05-06 10h20.35.192291 -0700,
,,,,,,,,,,,31,0.025,0.4249999999999998,,,,,173.56674999999996,,,,,,,173.55129420799994,174.5502098750003,0.5750000000000002,0.4249999999999998,174.55868283300015,176.30017729200017,176.30196487500007,177.06753125000023,mostlyred,red,1,1,1,0,17,"[0.4999999999999999, 0.5249999999999999, 0.4999999999999999, 0.5249999999999999, 0.44999999999999984, 0.4999999999999999, 0.44999999999999984, 0.47499999999999987, 0.4249999999999998, 0.47499999999999987, 0.4249999999999998, 0.44999999999999984]",0.47499999999999987,,,,,,,,,,,,,,,,,050626kl,001,2026-05-06_10h20.34.842,priming,,2026.1.3,60.09747822981398,2026-05-06 10h20.35.192291 -0700,
,,,,,,,,,,,32,0.025,0.3999999999999998,,,,,177.08339470800001,,,,,,,177.06796754200013,178.06676562500024,0.6000000000000002,0.3999999999999998,178.07060204200025,179.81675029200005,179.81866558299998,183.50086116700004,mostlyred,red,1,1,1,0,17,"[0.4999999999999999, 0.5249999999999999, 0.4999999999999999, 0.5249999999999999, 0.44999999999999984, 0.4999999999999999, 0.44999999999999984, 0.47499999999999987, 0.4249999999999998, 0.47499999999999987, 0.4249999999999998, 0.44999999999999984]",0.47499999999999987,,,,,,,,,,,,,,,,,050626kl,001,2026-05-06_10h20.34.842,priming,,2026.1.3,60.09747822981398,2026-05-06 10h20.35.192291 -0700,
,,,,,,,,,,,33,0.025,0.3749999999999998,,,,,183.51672458300027,,,,,,,183.5012968750002,184.50014604200032,0.6250000000000002,0.3749999999999998,184.5066645830002,186.25014558300018,186.25165366700003,189.523303167,mostlyred,red,1,1,1,0,17,"[0.4999999999999999, 0.5249999999999999, 0.4999999999999999, 0.5249999999999999, 0.44999999999999984, 0.4999999999999999, 0.44999999999999984, 0.47499999999999987, 0.4249999999999998, 0.47499999999999987, 0.4249999999999998, 0.44999999999999984]",0.47499999999999987,,,,,,,,,,,,,,,,,050626kl,001,2026-05-06_10h20.34.842,priming,,2026.1.3,60.09747822981398,2026-05-06 10h20.35.192291 -0700,
,,,,,,,,,,,34,0.025,0.34999999999999976,,,,,189.53341279200004,,,,,,,189.5239885420001,190.51679566700022,0.6500000000000002,0.34999999999999976,190.523618833,192.26685275,192.26853370800018,193.46772745800035,mostlygreen,green,0,1,0,1,18,"[0.4999999999999999, 0.5249999999999999, 0.4999999999999999, 0.5249999999999999, 0.44999999999999984, 0.4999999999999999, 0.44999999999999984, 0.47499999999999987, 0.4249999999999998, 0.47499999999999987, 0.4249999999999998, 0.44999999999999984, 0.34999999999999976]",0.46538461538461523,,,,,,,,,,,,,,,,,050626kl,001,2026-05-06_10h20.34.842,priming,,2026.1.3,60.09747822981398,2026-05-06 10h20.35.192291 -0700,
,,,,,,,,,,,35,0.025,0.3749999999999998,,,,,193.48343908300012,,,,,,,193.46798429199998,194.46686879200024,0.6250000000000002,0.3749999999999998,194.47050812499992,196.21682795800007,196.21878887499997,197.26758658300014,mostlyred,red,1,0,1,1,19,"[0.4999999999999999, 0.5249999999999999, 0.4999999999999999, 0.5249999999999999, 0.44999999999999984, 0.4999999999999999, 0.44999999999999984, 0.47499999999999987, 0.4249999999999998, 0.47499999999999987, 0.4249999999999998, 0.44999999999999984, 0.34999999999999976, 0.3749999999999998]",0.4589285714285713,,,,,,,,,,,,,,,,,050626kl,001,2026-05-06_10h20.34.842,priming,,2026.1.3,60.09747822981398,2026-05-06 10h20.35.192291 -0700,
,,,,,,,,,,,36,0.025,0.34999999999999976,,,,,197.28338820800036,,,,,,,197.26784150000003,198.2672350830003,0.6500000000000002,0.34999999999999976,198.27253337499997,200.0173681250003,200.01870083300037,202.46826695800019,allred,red,1,1,1,0,19,"[0.4999999999999999, 0.5249999999999999, 0.4999999999999999, 0.5249999999999999, 0.44999999999999984, 0.4999999999999999, 0.44999999999999984, 0.47499999999999987, 0.4249999999999998, 0.47499999999999987, 0.4249999999999998, 0.44999999999999984, 0.34999999999999976, 0.3749999999999998]",0.4589285714285713,,,,,,,,,,,,,,,,,050626kl,001,2026-05-06_10h20.34.842,priming,,2026.1.3,60.09747822981398,2026-05-06 10h20.35.192291 -0700,
,,,,,,,,,,,37,0.025,0.32499999999999973,,,,,202.48366787500026,,,,,,,202.46899191700004,203.46730141700027,0.6750000000000003,0.32499999999999973,203.47409266700015,205.21701250000024,205.21862033300022,206.93474345799996,mostlyred,red,1,1,1,0,19,"[0.4999999999999999, 0.5249999999999999, 0.4999999999999999, 0.5249999999999999, 0.44999999999999984, 0.4999999999999999, 0.44999999999999984, 0.47499999999999987, 0.4249999999999998, 0.47499999999999987, 0.4249999999999998, 0.44999999999999984, 0.34999999999999976, 0.3749999999999998]",0.4589285714285713,,,,,,,,,,,,,,,,,050626kl,001,2026-05-06_10h20.34.842,priming,,2026.1.3,60.09747822981398,2026-05-06 10h20.35.192291 -0700,
,,,,,,,,,,,38,0.025,0.2999999999999997,,,,,206.95019716700017,,,,,,,206.93538483300017,207.93367354200018,0.7000000000000003,0.2999999999999997,207.93868395800018,209.68365291700002,209.68582008300018,212.0343626670001,mostlyred,red,1,1,1,0,19,"[0.4999999999999999, 0.5249999999999999, 0.4999999999999999, 0.5249999999999999, 0.44999999999999984, 0.4999999999999999, 0.44999999999999984, 0.47499999999999987, 0.4249999999999998, 0.47499999999999987, 0.4249999999999998, 0.44999999999999984, 0.34999999999999976, 0.3749999999999998]",0.4589285714285713,,,,,,,,,,,,,,,,,050626kl,001,2026-05-06_10h20.34.842,priming,,2026.1.3,60.09747822981398,2026-05-06 10h20.35.192291 -0700,
,,,,,,,,,,,39,0.025,0.2749999999999997,,,,,212.0502405420002,,,,,,,212.03472587500028,213.0340405830002,0.7250000000000003,0.2749999999999997,213.04044658300018,214.78402129200003,214.7853072920002,216.53479500000003,allgreen,green,0,1,0,1,20,"[0.4999999999999999, 0.5249999999999999, 0.4999999999999999, 0.5249999999999999, 0.44999999999999984, 0.4999999999999999, 0.44999999999999984, 0.47499999999999987, 0.4249999999999998, 0.47499999999999987, 0.4249999999999998, 0.44999999999999984, 0.34999999999999976, 0.3749999999999998, 0.2749999999999997]",0.4466666666666665,,,,,,,,,,,,,,,,,050626kl,001,2026-05-06_10h20.34.842,priming,,2026.1.3,60.09747822981398,2026-05-06 10h20.35.192291 -0700,
,,,,,,,,,,,,,,,,,,,,,,space,53.619116332999965,None,,,,,,,,,,,,,,,,,,,,,,,,,,,,,,,,,,050626kl,001,2026-05-06_10h20.34.842,priming,,2026.1.3,60.09747822981398,2026-05-06 10h20.35.192291 -0700,
GR_Incongruent_GreenCue_RedProbe_Top,GreenGaborBoth.png,RedGaborBoth.png,GreenGaborBoth.png,RedGaborDisappearTop.png,Green.mp3,green,top,0,0,0,,,,0,0,0,54,270.383672125,,,,,,,,,,,,,,,,top,,,,,,,,270.28963891700005,274.3507124580001,274.350896208,279.6003885,279.61083454200025,280.8504196250001,280.8521800420003,282.3175555830003,282.31934900000033,284.48451645800014,evensplit,FinalRedContrast,FinalGreenContrast,284.4859444580002,286.80134375000034,3,050626kl,001,2026-05-06_10h20.34.842,priming,,2026.1.3,60.09747822981398,2026-05-06 10h20.35.192291 -0700,
GR_Incongruent_GreenCue_RedProbe_Bottom,GreenGaborBoth.png,RedGaborBoth.png,GreenGaborBoth.png,RedGaborDisappearBottom.png,Green.mp3,green,bottom,1,1,0,,,,0,1,1,63,286.8169803750002,,,,,,,,,,,,,,,,bottom,,,,,,,,286.80158600000004,327.38954887499995,327.3898373330003,332.63386954199996,332.646329958,333.8838531670003,333.88576812500014,335.13429124999993,335.1362414170003,337.50131629199996,mostlyred,FinalRedContrast,FinalGreenContrast,337.5023100420003,339.58467454200036,2,050626kl,001,2026-05-06_10h20.34.842,priming,,2026.1.3,60.09747822981398,2026-05-06 10h20.35.192291 -0700,
GR_Congruent_RedCue_RedProbe_Top,GreenGaborBoth.png,RedGaborBoth.png,GreenGaborBoth.png,RedGaborDisappearTop.png,Red.mp3,red,top,2,2,0,,,,0,2,2,40,339.6170628750001,,,,,,,,,,,,,,,,bottom,,,,,,,,339.58755462499994,341.9180677080003,341.9182732080003,347.16723870800024,347.17923337499997,348.41713574999994,348.41901491700037,349.50093212499996,349.5023677500003,353.0014019580003,evensplit,FinalRedContrast,FinalGreenContrast,353.0023509580001,356.0680566250003,2,050626kl,001,2026-05-06_10h20.34.842,priming,,2026.1.3,60.09747822981398,2026-05-06 10h20.35.192291 -0700,
GR_Congruent_GreenCue_GreenProbe_Top,GreenGaborBoth.png,RedGaborBoth.png,GreenGaborDisappearTop.png,RedGaborBoth.png,Green.mp3,green,top,3,3,0,,,,0,3,3,18,356.083786833,,,,,,,,,,,,,,,,top,,,,,,,,356.07104725,357.5842184170001,357.5843842080003,362.8338826670001,362.84589241699996,364.0838415830003,364.08604566700023,365.501160542,365.502982167,366.78488208299996,mostlygreen,FinalRedContrast,FinalGreenContrast,366.7859668330002,369.7682260830002,3,050626kl,001,2026-05-06_10h20.34.842,priming,,2026.1.3,60.09747822981398,2026-05-06 10h20.35.192291 -0700,
GR_Incongruent_GreenCue_RedProbe_Top,GreenGaborBoth.png,RedGaborBoth.png,GreenGaborBoth.png,RedGaborDisappearTop.png,Green.mp3,green,top,4,4,0,,,,0,4,4,46,369.78391254200005,,,,,,,,,,,,,,,,top,,,,,,,,369.768601792,370.90152100000023,370.90171383300003,376.1507566250002,376.16047070800005,377.4007190420002,377.40272091700035,378.6846740830001,378.685837,381.951545292,mostlyred,FinalRedContrast,FinalGreenContrast,381.95221229200024,383.61811079200015,3,050626kl,001,2026-05-06_10h20.34.842,priming,,2026.1.3,60.09747822981398,2026-05-06 10h20.35.192291 -0700,
GR_Incongruent_RedCue_GreenProbe_Top,GreenGaborBoth.png,RedGaborBoth.png,GreenGaborDisappearTop.png,RedGaborBoth.png,Red.mp3,red,top,5,5,0,,,,0,5,5,52,383.63400791699996,,,,,,,,,,,,,,,,top,,,,,,,,383.62059791699994,384.83434850000003,384.834545875,390.08400558300036,390.0970432080003,391.3339578750001,391.3358343750001,392.2344777500002,392.2358787080002,393.9681927920001,mostlygreen,FinalRedContrast,FinalGreenContrast,393.96885895800006,395.1847751670002,3,050626kl,001,2026-05-06_10h20.34.842,priming,,2026.1.3,60.09747822981398,2026-05-06 10h20.35.192291 -0700,
GR_Congruent_GreenCue_GreenProbe_Bottom,GreenGaborBoth.png,RedGaborBoth.png,GreenGaborDisappearBottom.png,RedGaborBoth.png,Green.mp3,green,bottom,6,6,0,,,,0,6,6,3,395.20057933299995,,,,,,,,,,,,,,,,top,,,,,,,,395.18766841700017,396.667577833,396.66774291699994,401.91742320799995,401.928403375,403.16731025000036,403.16963991700004,404.50171520799995,404.50249229200017,405.60152058300037,evensplit,FinalRedContrast,FinalGreenContrast,405.6029727079999,409.1183489170003,3,050626kl,001,2026-05-06_10h20.34.842,priming,,2026.1.3,60.09747822981398,2026-05-06 10h20.35.192291 -0700,
GR_Incongruent_GreenCue_RedProbe_Top,GreenGaborBoth.png,RedGaborBoth.png,GreenGaborBoth.png,RedGaborDisappearTop.png,Green.mp3,green,top,7,7,0,,,,0,7,7,30,409.13403070799995,,,,,,,,,,,,,,,,top,,,,,,,,409.1185821670001,409.8843691249999,409.88453933300025,415.13418245799994,415.14316266700007,416.38406816700035,416.385833542,417.7225372920002,417.72290929200017,420.73506650000036,mostlyred,FinalRedContrast,FinalGreenContrast,420.73590945800015,424.601591958,3,050626kl,001,2026-05-06_10h20.34.842,priming,,2026.1.3,60.09747822981398,2026-05-06 10h20.35.192291 -0700,
GR_Incongruent_GreenCue_RedProbe_Bottom,GreenGaborBoth.png,RedGaborBoth.png,GreenGaborBoth.png,RedGaborDisappearBottom.png,Green.mp3,green,bottom,8,8,0,,,,0,8,8,39,424.61737670799994,,,,,,,,,,,,,,,,bottom,,,,,,,,424.601781458,427.3011286250003,427.30135075,432.550848417,432.56162729200014,433.80077058300003,433.80270687500024,435.20131500000025,435.20275737500015,437.335009208,mostlyred,FinalRedContrast,FinalGreenContrast,437.3362473750003,439.4856305420003,2,050626kl,001,2026-05-06_10h20.34.842,priming,,2026.1.3,60.09747822981398,2026-05-06 10h20.35.192291 -0700,
GR_Incongruent_RedCue_GreenProbe_Bottom,GreenGaborBoth.png,RedGaborBoth.png,GreenGaborDisappearBottom.png,RedGaborBoth.png,Red.mp3,red,bottom,9,9,0,,,,0,9,9,21,439.5007786250003,,,,,,,,,,,,,,,,bottom,,,,,,,,439.4884975,441.0343901670003,441.0345705,446.284136792,446.29638049999994,447.5342310830001,447.536072375,449.21820612500005,449.2199921250003,451.3023615830002,mostlyred,FinalRedContrast,FinalGreenContrast,451.30276295800013,453.068476292,2,050626kl,001,2026-05-06_10h20.34.842,priming,,2026.1.3,60.09747822981398,2026-05-06 10h20.35.192291 -0700,
GR_Congruent_GreenCue_GreenProbe_Top,GreenGaborBoth.png,RedGaborBoth.png,GreenGaborDisappearTop.png,RedGaborBoth.png,Green.mp3,green,top,10,10,0,,,,0,10,10,26,453.08417070800033,,,,,,,,,,,,,,,,top,,,,,,,,453.0708252500003,454.7178882080002,454.7180752080003,459.96761504200003,459.9763345000001,461.2176669170003,461.2195323330002,462.91806616700023,462.9197885000003,464.285071625,evensplit,FinalRedContrast,FinalGreenContrast,464.2865645830002,466.71849845800034,3,050626kl,001,2026-05-06_10h20.34.842,priming,,2026.1.3,60.09747822981398,2026-05-06 10h20.35.192291 -0700,
GR_Congruent_GreenCue_GreenProbe_Top,GreenGaborBoth.png,RedGaborBoth.png,GreenGaborDisappearTop.png,RedGaborBoth.png,Green.mp3,green,top,11,11,0,,,,0,11,11,2,466.7341673330002,,,,,,,,,,,,,,,,bottom,,,,,,,,466.7186797500003,472.66789745799997,472.66807854200033,477.9176775000001,477.928161542,479.1675703330002,479.16954345800013,483.8681595000003,483.8691831670003,487.08508699999993,mostlygreen,FinalRedContrast,FinalGreenContrast,487.0865490420001,488.4683772080002,3,050626kl,001,2026-05-06_10h20.34.842,priming,,2026.1.3,60.09747822981398,2026-05-06 10h20.35.192291 -0700,
GR_Incongruent_RedCue_GreenProbe_Bottom,GreenGaborBoth.png,RedGaborBoth.png,GreenGaborDisappearBottom.png,RedGaborBoth.png,Red.mp3,red,bottom,12,12,0,,,,0,12,12,13,488.4841590000001,,,,,,,,,,,,,,,,bottom,,,,,,,,488.47104633300023,490.234765833,490.2349492500002,495.4844548330002,495.49476408300006,496.73441970800013,496.73631133300023,498.05160112500016,498.05328529200006,501.2690243330003,mostlyred,FinalRedContrast,FinalGreenContrast,501.26968208300013,504.118548167,3,050626kl,001,2026-05-06_10h20.34.842,priming,,2026.1.3,60.09747822981398,2026-05-06 10h20.35.192291 -0700,
GR_Incongruent_RedCue_GreenProbe_Top,GreenGaborBoth.png,RedGaborBoth.png,GreenGaborDisappearTop.png,RedGaborBoth.png,Red.mp3,red,top,13,13,0,,,,0,13,13,36,504.134307583,,,,,,,,,,,,,,,,top,,,,,,,,504.11910812500037,505.8350679580003,505.8352936670003,511.08444233299997,511.09525954200035,512.3343610000002,512.336418375,516.884887708,516.8863057920003,518.5518682500001,mostlygreen,FinalRedContrast,FinalGreenContrast,518.5529267920001,520.6685121250002,3,050626kl,001,2026-05-06_10h20.34.842,priming,,2026.1.3,60.09747822981398,2026-05-06 10h20.35.192291 -0700,
GG_non_riv_catch_RedCue_GreenProbe_Bottom,GreenGaborBoth.png,Blank.png,GreenGaborDisappearBottom.png,Blank.png,Red.mp3,red,bottom,14,14,0,,,,0,14,14,77,520.6843224580002,,,,,,,,,,,,,,,,bottom,,,,,,,,520.66876925,521.5846602080001,521.5848633330002,526.834363125,526.8460507500004,528.0843865420002,528.0865322080003,529.1847910000001,529.1866837500002,530.518640542,allgreen,FinalRedContrast,FinalGreenContrast,530.5201266250001,534.1188985000003,4,050626kl,001,2026-05-06_10h20.34.842,priming,,2026.1.3,60.09747822981398,2026-05-06 10h20.35.192291 -0700,
GR_Congruent_RedCue_RedProbe_Bottom,GreenGaborBoth.png,RedGaborBoth.png,GreenGaborBoth.png,RedGaborDisappearBottom.png,Red.mp3,red,bottom,15,15,0,,,,0,15,15,65,534.1344018750001,,,,,,,,,,,,,,,,bottom,,,,,,,,534.1192594170002,535.3015667080003,535.3017540000001,540.551145292,540.5607736669999,541.8011457920002,541.803095792,543.1182455000003,543.120049917,545.968774125,mostlygreen,FinalRedContrast,FinalGreenContrast,545.9699675000002,548.2353055830004,3,050626kl,001,2026-05-06_10h20.34.842,priming,,2026.1.3,60.09747822981398,2026-05-06 10h20.35.192291 -0700,
GR_Incongruent_RedCue_GreenProbe_Top,GreenGaborBoth.png,RedGaborBoth.png,GreenGaborDisappearTop.png,RedGaborBoth.png,Red.mp3,red,top,16,16,0,,,,0,16,16,60,548.251039625,,,,,,,,,,,,,,,,top,,,,,,,,548.2355455000002,551.0848449580003,551.0850163750001,556.3344932919999,556.3436319580001,557.584510875,557.586506917,558.5683777080003,558.569986208,560.8020622920003,evensplit,FinalRedContrast,FinalGreenContrast,560.8035397500003,563.4857807920002,3,050626kl,001,2026-05-06_10h20.34.842,priming,,2026.1.3,60.09747822981398,2026-05-06 10h20.35.192291 -0700,
GR_Incongruent_RedCue_GreenProbe_Bottom,GreenGaborBoth.png,RedGaborBoth.png,GreenGaborDisappearBottom.png,RedGaborBoth.png,Red.mp3,red,bottom,17,17,0,,,,0,17,17,5,563.5010815830001,,,,,,,,,,,,,,,,bottom,,,,,,,,563.4860462080001,565.5014650000003,565.5016425829999,570.751566083,570.7620215420002,572.0012523750001,572.003128333,575.535122667,575.5360995000001,577.385380958,mostlyred,FinalRedContrast,FinalGreenContrast,577.3869572920003,579.7854700420003,2,050626kl,001,2026-05-06_10h20.34.842,priming,,2026.1.3,60.09747822981398,2026-05-06 10h20.35.192291 -0700,
GR_Incongruent_GreenCue_RedProbe_Bottom,GreenGaborBoth.png,RedGaborBoth.png,GreenGaborBoth.png,RedGaborDisappearBottom.png,Green.mp3,green,bottom,18,18,0,,,,0,18,18,55,579.8011690000003,,,,,,,,,,,,,,,,bottom,,,,,,,,579.7888107500003,583.2688257919999,583.2690070830004,588.5179736250002,588.5276962080002,589.7679110419999,589.7703145830001,590.8184083750002,590.8193177500002,592.652118125,mostlyred,FinalRedContrast,FinalGreenContrast,592.6534074169999,596.218801083,4,050626kl,001,2026-05-06_10h20.34.842,priming,,2026.1.3,60.09747822981398,2026-05-06 10h20.35.192291 -0700,
GR_Congruent_RedCue_RedProbe_Top,GreenGaborBoth.png,RedGaborBoth.png,GreenGaborBoth.png,RedGaborDisappearTop.png,Red.mp3,red,top,19,19,0,,,,0,19,19,32,596.2345409170002,,,,,,,,,,,,,,,,top,,,,,,,,596.2216848329999,597.8682659169999,597.8684562080002,603.1179345,603.1277516670002,604.3679770000003,604.3699379580003,607.4350644169999,607.4369220420003,609.4688137080002,allred,FinalRedContrast,FinalGreenContrast,609.4702796250003,613.9522267500001,4,050626kl,001,2026-05-06_10h20.34.842,priming,,2026.1.3,60.09747822981398,2026-05-06 10h20.35.192291 -0700,
GR_Congruent_RedCue_RedProbe_Bottom,GreenGaborBoth.png,RedGaborBoth.png,GreenGaborBoth.png,RedGaborDisappearBottom.png,Red.mp3,red,bottom,20,20,0,,,,0,20,20,41,613.9681048750003,,,,,,,,,,,,,,,,bottom,,,,,,,,613.9525906670001,615.801744458,615.8019124580001,621.0514215420003,621.061737167,622.3014412920002,622.304852792,623.418565083,623.4200315420003,625.5190762500001,evensplit,FinalRedContrast,FinalGreenContrast,625.519576917,627.135644292,3,050626kl,001,2026-05-06_10h20.34.842,priming,,2026.1.3,60.09747822981398,2026-05-06 10h20.35.192291 -0700,
GR_Incongruent_GreenCue_RedProbe_Bottom,GreenGaborBoth.png,RedGaborBoth.png,GreenGaborBoth.png,RedGaborDisappearBottom.png,Green.mp3,green,bottom,21,21,0,,,,0,21,21,23,627.1513090830003,,,,,,,,,,,,,,,,bottom,,,,,,,,627.1384532500001,629.8018176670003,629.8019870000003,635.0514051250002,635.0604720830001,636.3015055830001,636.3033864170002,637.1686330000002,637.1697544580002,638.2857824580001,allred,FinalRedContrast,FinalGreenContrast,638.287035542,639.6522796670001,4,050626kl,001,2026-05-06_10h20.34.842,priming,,2026.1.3,60.09747822981398,2026-05-06 10h20.35.192291 -0700,
GR_Congruent_GreenCue_GreenProbe_Bottom,GreenGaborBoth.png,RedGaborBoth.png,GreenGaborDisappearBottom.png,RedGaborBoth.png,Green.mp3,green,bottom,22,22,0,,,,0,22,22,43,639.6680079170001,,,,,,,,,,,,,,,,bottom,,,,,,,,639.6525305,641.6683720830001,641.6685375000002,646.9181853750001,646.9304268750002,648.1680687500002,648.1717894580001,648.9852151250002,648.986624833,650.8522702079999,evensplit,FinalRedContrast,FinalGreenContrast,650.8537972500003,652.9524643750001,3,050626kl,001,2026-05-06_10h20.34.842,priming,,2026.1.3,60.09747822981398,2026-05-06 10h20.35.192291 -0700,
GR_Congruent_RedCue_RedProbe_Bottom,GreenGaborBoth.png,RedGaborBoth.png,GreenGaborBoth.png,RedGaborDisappearBottom.png,Red.mp3,red,bottom,23,23,0,,,,0,23,23,57,652.9680950420002,,,,,,,,,,,,,,,,bottom,,,,,,,,652.9552820000004,654.8518760830002,654.8520556670001,660.1016895830003,660.1136087080004,661.3515984580004,661.354901833,662.1353940419999,662.1365639580004,663.9192962080001,mostlyred,FinalRedContrast,FinalGreenContrast,663.9200725420001,665.9690258750002,3,050626kl,001,2026-05-06_10h20.34.842,priming,,2026.1.3,60.09747822981398,2026-05-06 10h20.35.192291 -0700,
GR_Congruent_RedCue_RedProbe_Bottom,GreenGaborBoth.png,RedGaborBoth.png,GreenGaborBoth.png,RedGaborDisappearBottom.png,Red.mp3,red,bottom,24,24,0,,,,0,24,24,33,665.9847831249999,,,,,,,,,,,,,,,,bottom,,,,,,,,665.9692714580001,674.3353187920002,674.3354897500003,679.585046792,679.5957504170001,680.8348703330003,680.8373146670001,681.6020615000002,681.6035684580002,682.7191425830001,evensplit,FinalRedContrast,FinalGreenContrast,682.7198172500002,684.6696588750001,3,050626kl,001,2026-05-06_10h20.34.842,priming,,2026.1.3,60.09747822981398,2026-05-06 10h20.35.192291 -0700,
GR_Incongruent_RedCue_GreenProbe_Top,GreenGaborBoth.png,RedGaborBoth.png,GreenGaborDisappearTop.png,RedGaborBoth.png,Red.mp3,red,top,25,25,0,,,,0,25,25,68,684.6848546250003,,,,,,,,,,,,,,,,top,,,,,,,,684.6699020420001,688.5851644170002,688.5853453330001,693.8350222080003,693.8437073330001,695.0850100000002,695.0869842080001,695.9354846670003,695.9373653750004,696.8525210830003,allred,FinalRedContrast,FinalGreenContrast,696.8538954580004,699.0191664580002,3,050626kl,001,2026-05-06_10h20.34.842,priming,,2026.1.3,60.09747822981398,2026-05-06 10h20.35.192291 -0700,
GR_Congruent_RedCue_RedProbe_Bottom,GreenGaborBoth.png,RedGaborBoth.png,GreenGaborBoth.png,RedGaborDisappearBottom.png,Red.mp3,red,bottom,26,26,0,,,,0,26,26,17,699.034960167,,,,,,,,,,,,,,,,bottom,,,,,,,,699.0194233750003,701.4353892920003,701.4355558750003,706.6850153750001,706.693707167,707.9349883330001,707.9368575830003,709.502180292,709.5033732080001,710.9858416249999,allred,FinalRedContrast,FinalGreenContrast,710.986778,712.985886292,3,050626kl,001,2026-05-06_10h20.34.842,priming,,2026.1.3,60.09747822981398,2026-05-06 10h20.35.192291 -0700,
GR_Congruent_RedCue_RedProbe_Top,GreenGaborBoth.png,RedGaborBoth.png,GreenGaborBoth.png,RedGaborDisappearTop.png,Red.mp3,red,top,27,27,0,,,,0,27,27,16,713.0015410830001,,,,,,,,,,,,,,,,top,,,,,,,,712.986187042,715.21858475,715.2187479580002,720.4682983750004,720.476319542,721.7184447080003,721.7204824170003,722.5687855420001,722.5706291250003,723.635906042,mostlyred,FinalRedContrast,FinalGreenContrast,723.637371625,725.2530190420002,4,050626kl,001,2026-05-06_10h20.34.842,priming,,2026.1.3,60.09747822981398,2026-05-06 10h20.35.192291 -0700,
GR_Incongruent_RedCue_GreenProbe_Bottom,GreenGaborBoth.png,RedGaborBoth.png,GreenGaborDisappearBottom.png,RedGaborBoth.png,Red.mp3,red,bottom,28,28,0,,,,0,28,28,29,725.2682634580001,,,,,,,,,,,,,,,,bottom,,,,,,,,725.2532376250001,726.4020285420002,726.4021979170002,731.6521981250003,731.6619202920001,732.901784958,732.9034736250001,734.0523446669999,734.0542046670002,736.6530483750003,mostlyred,FinalRedContrast,FinalGreenContrast,736.6535356670001,738.752615458,2,050626kl,001,2026-05-06_10h20.34.842,priming,,2026.1.3,60.09747822981398,2026-05-06 10h20.35.192291 -0700,
GG_non_riv_catch_RedCue_GreenProbe_Top,GreenGaborBoth.png,Blank.png,GreenGaborDisappearTop.png,Blank.png,Red.mp3,red,top,29,29,0,,,,0,29,29,76,738.768378625,,,,,,,,,,,,,,,,top,,,,,,,,738.7528081250002,741.4187551250002,741.418937417,746.668516958,746.6789282920004,747.9184467919999,747.9205245000003,748.5688583330002,748.5701357080002,750.085918708,allgreen,FinalRedContrast,FinalGreenContrast,750.0874478750002,751.6364457080003,4,050626kl,001,2026-05-06_10h20.34.842,priming,,2026.1.3,60.09747822981398,2026-05-06 10h20.35.192291 -0700,
GR_Incongruent_GreenCue_RedProbe_Top,GreenGaborBoth.png,RedGaborBoth.png,GreenGaborBoth.png,RedGaborDisappearTop.png,Green.mp3,green,top,30,30,0,,,,0,30,30,38,751.651762,,,,,,,,,,,,,,,,top,,,,,,,,751.6392349580001,752.9354296670003,752.9356065420002,758.1852034170001,758.1945371250004,759.4351716670003,759.437040667,760.7856029580003,760.7871862500001,761.936007542,evensplit,FinalRedContrast,FinalGreenContrast,761.9374588330002,763.3693762920002,3,050626kl,001,2026-05-06_10h20.34.842,priming,,2026.1.3,60.09747822981398,2026-05-06 10h20.35.192291 -0700,
GR_Incongruent_GreenCue_RedProbe_Bottom,GreenGaborBoth.png,RedGaborBoth.png,GreenGaborBoth.png,RedGaborDisappearBottom.png,Green.mp3,green,bottom,31,31,0,,,,0,31,31,71,763.385045125,,,,,,,,,,,,,,,,top,,,,,,,,763.3696461250001,767.7354386669999,767.7356116670003,772.985363542,772.9959772080001,774.2353236670001,774.237289917,776.069059167,776.0697677500002,779.8366287920003,evensplit,FinalRedContrast,FinalGreenContrast,779.8372116670002,780.9862251670002,3,050626kl,001,2026-05-06_10h20.34.842,priming,,2026.1.3,60.09747822981398,2026-05-06 10h20.35.192291 -0700,
RR_non_riv_catch_GreenCue_RedProbe_Bottom,Blank.png,RedGaborBoth.png,Blank.png,RedGaborDisappearBottom.png,Green.mp3,green,bottom,32,32,0,,,,0,32,32,75,781.001836417,,,,,,,,,,,,,,,,bottom,,,,,,,,780.986551167,781.868955375,781.8691614170002,787.1185624170002,787.127700042,788.3685636250002,788.3719551670001,789.5858119170002,789.5865992500003,790.8193780830002,allred,FinalRedContrast,FinalGreenContrast,790.8207970000003,792.4862093330003,4,050626kl,001,2026-05-06_10h20.34.842,priming,,2026.1.3,60.09747822981398,2026-05-06 10h20.35.192291 -0700,
GR_Congruent_GreenCue_GreenProbe_Bottom,GreenGaborBoth.png,RedGaborBoth.png,GreenGaborDisappearBottom.png,RedGaborBoth.png,Green.mp3,green,bottom,33,33,0,,,,0,33,33,11,792.501959708,,,,,,,,,,,,,,,,bottom,,,,,,,,792.4864714170003,793.9023184580001,793.9024917080001,799.1519951670002,799.1624672500002,800.4019048330001,800.4038887920001,801.4191162080001,801.4206114170001,803.8194225830002,mostlygreen,FinalRedContrast,FinalGreenContrast,803.8208688750001,805.0861018330002,3,050626kl,001,2026-05-06_10h20.34.842,priming,,2026.1.3,60.09747822981398,2026-05-06 10h20.35.192291 -0700,
GR_Congruent_GreenCue_GreenProbe_Bottom,GreenGaborBoth.png,RedGaborBoth.png,GreenGaborDisappearBottom.png,RedGaborBoth.png,Green.mp3,green,bottom,34,34,0,,,,0,34,34,59,805.101851167,,,,,,,,,,,,,,,,bottom,,,,,,,,805.0863400420003,806.3022754170001,806.3024473330001,811.552014542,811.56030775,812.8021301670001,812.803427417,814.3192101250002,814.3206667920003,815.8365074580001,mostlygreen,FinalRedContrast,FinalGreenContrast,815.8376562920002,817.7695542920001,4,050626kl,001,2026-05-06_10h20.34.842,priming,,2026.1.3,60.09747822981398,2026-05-06 10h20.35.192291 -0700,
GR_Incongruent_GreenCue_RedProbe_Bottom,GreenGaborBoth.png,RedGaborBoth.png,GreenGaborBoth.png,RedGaborDisappearBottom.png,Green.mp3,green,bottom,35,35,0,,,,0,35,35,15,817.7852762500002,,,,,,,,,,,,,,,,bottom,,,,,,,,817.7696740000001,818.819087542,818.8192603750003,824.068765167,824.0788657920002,825.318678958,825.3205387500002,826.369210333,826.370747125,827.852914,mostlygreen,FinalRedContrast,FinalGreenContrast,827.8544120830002,830.3862267920003,4,050626kl,001,2026-05-06_10h20.34.842,priming,,2026.1.3,60.09747822981398,2026-05-06 10h20.35.192291 -0700,
GR_Congruent_RedCue_RedProbe_Bottom,GreenGaborBoth.png,RedGaborBoth.png,GreenGaborBoth.png,RedGaborDisappearBottom.png,Red.mp3,red,bottom,36,36,0,,,,0,36,36,25,830.4020284580001,,,,,,,,,,,,,,,,bottom,,,,,,,,830.3899799580004,846.385806542,846.3860073750002,851.6356470420001,851.646587958,852.8855344170001,852.8878869580003,858.7860540420002,858.7877243749999,859.6031037080002,allgreen,FinalRedContrast,FinalGreenContrast,859.604383292,862.053485333,3,050626kl,001,2026-05-06_10h20.34.842,priming,,2026.1.3,60.09747822981398,2026-05-06 10h20.35.192291 -0700,
GR_Congruent_RedCue_RedProbe_Top,GreenGaborBoth.png,RedGaborBoth.png,GreenGaborBoth.png,RedGaborDisappearTop.png,Red.mp3,red,top,37,37,0,,,,0,37,37,64,862.0687821670003,,,,,,,,,,,,,,,,top,,,,,,,,862.0537783330001,863.9192322080003,863.919414208,869.1688355000001,869.1785906250002,870.418847125,870.420711792,872.1360615830004,872.137699417,873.6367301250002,evensplit,FinalRedContrast,FinalGreenContrast,873.6377252080001,877.0363562920002,3,050626kl,001,2026-05-06_10h20.34.842,priming,,2026.1.3,60.09747822981398,2026-05-06 10h20.35.192291 -0700,
GR_Congruent_RedCue_RedProbe_Bottom,GreenGaborBoth.png,RedGaborBoth.png,GreenGaborBoth.png,RedGaborDisappearBottom.png,Red.mp3,red,bottom,38,38,0,,,,0,38,38,9,877.0521036250002,,,,,,,,,,,,,,,,bottom,,,,,,,,877.0366147920004,885.1025871670004,885.1027838750001,890.3522940420003,890.3619363330004,891.602398083,891.6043614580003,892.9361816670003,892.9375701670001,894.719859583,allgreen,FinalRedContrast,FinalGreenContrast,894.721245958,896.4698942919999,4,050626kl,001,2026-05-06_10h20.34.842,priming,,2026.1.3,60.09747822981398,2026-05-06 10h20.35.192291 -0700,
GR_Incongruent_GreenCue_RedProbe_Top,GreenGaborBoth.png,RedGaborBoth.png,GreenGaborBoth.png,RedGaborDisappearTop.png,Green.mp3,green,top,39,39,0,,,,0,39,39,22,896.4856197920003,,,,,,,,,,,,,,,,top,,,,,,,,896.4735460420002,897.1527711250001,897.1529437080003,902.402279333,902.4131337920003,903.6523286250003,903.6542035830003,904.8528838750003,904.8536091250003,907.0535569170002,mostlyred,FinalRedContrast,FinalGreenContrast,907.05391775,908.103126208,3,050626kl,001,2026-05-06_10h20.34.842,priming,,2026.1.3,60.09747822981398,2026-05-06 10h20.35.192291 -0700,
GR_Incongruent_GreenCue_RedProbe_Bottom,GreenGaborBoth.png,RedGaborBoth.png,GreenGaborBoth.png,RedGaborDisappearBottom.png,Green.mp3,green,bottom,40,40,0,,,,0,40,40,47,908.1188939580002,,,,,,,,,,,,,,,,bottom,,,,,,,,908.103363875,915.4026622920001,915.4028684580003,920.6523099579999,920.662339042,921.9022972500002,921.9040957920001,923.4193962920003,923.4211085420002,924.619802875,evensplit,FinalRedContrast,FinalGreenContrast,924.6213902080003,925.6699095829999,3,050626kl,001,2026-05-06_10h20.34.842,priming,,2026.1.3,60.09747822981398,2026-05-06 10h20.35.192291 -0700,
GG_non_riv_catch_GreenCue_GreenProbe_Bottom,GreenGaborBoth.png,Blank.png,GreenGaborDisappearBottom.png,Blank.png,Green.mp3,green,bottom,41,41,0,,,,0,41,41,79,925.6855920830003,,,,,,,,,,,,,,,,bottom,,,,,,,,925.6701538750003,927.6860080000001,927.6862929170002,932.9358345,932.9450859170001,934.185884083,934.1878616250001,935.4861659580001,935.4876722500003,937.1700930000002,allgreen,FinalRedContrast,FinalGreenContrast,937.1706074580002,939.353245708,4,050626kl,001,2026-05-06_10h20.34.842,priming,,2026.1.3,60.09747822981398,2026-05-06 10h20.35.192291 -0700,
RR_non_riv_catch_RedCue_RedProbe_Bottom,Blank.png,RedGaborBoth.png,Blank.png,RedGaborDisappearBottom.png,Red.mp3,red,bottom,42,42,0,,,,0,42,42,73,939.369160875,,,,,,,,,,,,,,,,bottom,,,,,,,,939.356014292,944.586142958,944.5863371250002,949.8359418330001,949.8455918750001,951.0858614170002,951.0877377500001,953.0695634580002,953.0703215000003,954.7366045420004,allred,FinalRedContrast,FinalGreenContrast,954.7378565419999,956.9199548330002,4,050626kl,001,2026-05-06_10h20.34.842,priming,,2026.1.3,60.09747822981398,2026-05-06 10h20.35.192291 -0700,
GR_Incongruent_RedCue_GreenProbe_Bottom,GreenGaborBoth.png,RedGaborBoth.png,GreenGaborDisappearBottom.png,RedGaborBoth.png,Red.mp3,red,bottom,43,43,0,,,,0,43,43,61,956.9356796669999,,,,,,,,,,,,,,,,bottom,,,,,,,,956.9201995420003,959.71942575,959.7196036250002,964.9692714170001,964.980052292,966.2191242500003,966.2211346670001,968.2203653750003,968.2210984580001,969.1533870830003,evensplit,FinalRedContrast,FinalGreenContrast,969.1547392500001,970.9201062500001,3,050626kl,001,2026-05-06_10h20.34.842,priming,,2026.1.3,60.09747822981398,2026-05-06 10h20.35.192291 -0700,
GR_Incongruent_GreenCue_RedProbe_Top,GreenGaborBoth.png,RedGaborBoth.png,GreenGaborBoth.png,RedGaborDisappearTop.png,Green.mp3,green,top,44,44,0,,,,0,44,44,62,970.935906792,,,,,,,,,,,,,,,,top,,,,,,,,970.923207417,972.986220708,972.9864119580002,978.23588875,978.2473060000002,979.4858840830002,979.4877831250001,981.4363467920002,981.4375178330001,983.0200587920003,mostlyred,FinalRedContrast,FinalGreenContrast,983.021570208,984.3201572920002,5,050626kl,001,2026-05-06_10h20.34.842,priming,,2026.1.3,60.09747822981398,2026-05-06 10h20.35.192291 -0700,
GR_Congruent_GreenCue_GreenProbe_Top,GreenGaborBoth.png,RedGaborBoth.png,GreenGaborDisappearTop.png,RedGaborBoth.png,Green.mp3,green,top,45,45,0,,,,0,45,45,58,984.3358726250003,,,,,,,,,,,,,,,,top,,,,,,,,984.320401042,986.5362236670003,986.5364210420003,991.786250917,991.799204208,993.0361800420001,993.0384154170001,994.4530384170002,994.4540298330003,995.6534645830002,mostlygreen,FinalRedContrast,FinalGreenContrast,995.6543112080003,998.7367906250001,3,050626kl,001,2026-05-06_10h20.34.842,priming,,2026.1.3,60.09747822981398,2026-05-06 10h20.35.192291 -0700,
GR_Incongruent_RedCue_GreenProbe_Top,GreenGaborBoth.png,RedGaborBoth.png,GreenGaborDisappearTop.png,RedGaborBoth.png,Red.mp3,red,top,46,46,0,,,,0,46,46,20,998.7524870420002,,,,,,,,,,,,,,,,top,,,,,,,,998.739494208,1000.2862437500003,1000.2864410830002,1005.5359745420001,1005.544473292,1006.7859360000002,1006.7884032920001,1007.7697090000001,1007.771217167,1009.3368814580003,evensplit,FinalRedContrast,FinalGreenContrast,1009.3381374580003,1011.4034933330004,3,050626kl,001,2026-05-06_10h20.34.842,priming,,2026.1.3,60.09747822981398,2026-05-06 10h20.35.192291 -0700,
GR_Congruent_RedCue_RedProbe_Bottom,GreenGaborBoth.png,RedGaborBoth.png,GreenGaborBoth.png,RedGaborDisappearBottom.png,Red.mp3,red,bottom,47,47,0,,,,0,47,47,1,1011.419287708,,,,,,,,,,,,,,,,bottom,,,,,,,,1011.4036697500001,1019.2036335830003,1019.203889208,1024.452765292,1024.462940542,1025.7026647920002,1025.704619875,1027.019915417,1027.021059833,1028.520208333,mostlygreen,FinalRedContrast,FinalGreenContrast,1028.5218345830003,1030.3535362920002,3,050626kl,001,2026-05-06_10h20.34.842,priming,,2026.1.3,60.09747822981398,2026-05-06 10h20.35.192291 -0700,
GR_Incongruent_RedCue_GreenProbe_Bottom,GreenGaborBoth.png,RedGaborBoth.png,GreenGaborDisappearBottom.png,RedGaborBoth.png,Red.mp3,red,bottom,48,48,0,,,,0,48,48,45,1030.369256125,,,,,,,,,,,,,,,,bottom,,,,,,,,1030.3537888330002,1033.169756708,1033.1699389170003,1038.4194782080003,1038.4300190420004,1039.669337625,1039.671227583,1040.4364572500003,1040.4379664580001,1041.403574,mostlyred,FinalRedContrast,FinalGreenContrast,1041.4050795000003,1043.2203224580003,3,050626kl,001,2026-05-06_10h20.34.842,priming,,2026.1.3,60.09747822981398,2026-05-06 10h20.35.192291 -0700,
GR_Incongruent_RedCue_GreenProbe_Top,GreenGaborBoth.png,RedGaborBoth.png,GreenGaborDisappearTop.png,RedGaborBoth.png,Red.mp3,red,top,49,49,0,,,,0,49,49,44,1043.235961417,,,,,,,,,,,,,,,,top,,,,,,,,1043.2206007500004,1044.420218792,1044.4204062080003,1049.669599667,1049.6802964170001,1050.9194822080003,1050.921363125,1051.6200305830002,1051.6217429170001,1052.7202994580002,evensplit,FinalRedContrast,FinalGreenContrast,1052.721865208,1054.6870617080003,3,050626kl,001,2026-05-06_10h20.34.842,priming,,2026.1.3,60.09747822981398,2026-05-06 10h20.35.192291 -0700,
GR_Congruent_GreenCue_GreenProbe_Top,GreenGaborBoth.png,RedGaborBoth.png,GreenGaborDisappearTop.png,RedGaborBoth.png,Green.mp3,green,top,50,50,0,,,,0,50,50,50,1054.702738083,,,,,,,,,,,,,,,,top,,,,,,,,1054.690167625,1056.9031437500003,1056.903321458,1062.152923833,1062.1614986670002,1063.4028428750003,1063.40476175,1064.3700437920002,1064.3713400420002,1066.136953625,evensplit,FinalRedContrast,FinalGreenContrast,1066.1385010000004,1067.753652625,3,050626kl,001,2026-05-06_10h20.34.842,priming,,2026.1.3,60.09747822981398,2026-05-06 10h20.35.192291 -0700,
GR_Incongruent_GreenCue_RedProbe_Top,GreenGaborBoth.png,RedGaborBoth.png,GreenGaborBoth.png,RedGaborDisappearTop.png,Green.mp3,green,top,51,51,0,,,,0,51,51,14,1067.7694072080003,,,,,,,,,,,,,,,,top,,,,,,,,1067.753938292,1069.6198155000002,1069.6199861670002,1074.8695243330003,1074.880230708,1076.1195337500003,1076.121461667,1076.9699432920002,1076.971792833,1078.386945583,mostlyred,FinalRedContrast,FinalGreenContrast,1078.3883209170003,1079.9370453330002,3,050626kl,001,2026-05-06_10h20.34.842,priming,,2026.1.3,60.09747822981398,2026-05-06 10h20.35.192291 -0700,
GR_Congruent_GreenCue_GreenProbe_Bottom,GreenGaborBoth.png,RedGaborBoth.png,GreenGaborDisappearBottom.png,RedGaborBoth.png,Green.mp3,green,bottom,52,52,0,,,,0,52,52,19,1079.9527572920001,,,,,,,,,,,,,,,,bottom,,,,,,,,1079.937302625,1082.3197881250003,1082.319962125,1087.5696372500001,1087.580804625,1088.8195893330003,1088.821564375,1089.7534556250002,1089.7550826670004,1092.1038387080002,evensplit,FinalRedContrast,FinalGreenContrast,1092.104657375,1093.6872009580002,3,050626kl,001,2026-05-06_10h20.34.842,priming,,2026.1.3,60.09747822981398,2026-05-06 10h20.35.192291 -0700,
GR_Incongruent_RedCue_GreenProbe_Bottom,GreenGaborBoth.png,RedGaborBoth.png,GreenGaborDisappearBottom.png,RedGaborBoth.png,Red.mp3,red,bottom,53,53,0,,,,0,53,53,69,1093.702891417,,,,,,,,,,,,,,,,bottom,,,,,,,,1093.69030475,1097.153291917,1097.1534982500002,1102.4030037080001,1102.413785833,1103.653027792,1103.6550378330003,1104.320078583,1104.3218837920003,1106.5705723750002,mostlygreen,FinalRedContrast,FinalGreenContrast,1106.571877458,1108.2704860420004,4,050626kl,001,2026-05-06_10h20.34.842,priming,,2026.1.3,60.09747822981398,2026-05-06 10h20.35.192291 -0700,
GR_Congruent_RedCue_RedProbe_Top,GreenGaborBoth.png,RedGaborBoth.png,GreenGaborBoth.png,RedGaborDisappearTop.png,Red.mp3,red,top,54,54,0,,,,0,54,54,8,1108.2862140830002,,,,,,,,,,,,,,,,top,,,,,,,,1108.270738875,1109.120012458,1109.1201812500003,1114.369663375,1114.3795520000003,1115.619607958,1115.6215004170003,1116.8034646670003,1116.804953625,1119.4205711670002,mostlyred,FinalRedContrast,FinalGreenContrast,1119.4219064170002,1120.3205023750002,3,050626kl,001,2026-05-06_10h20.34.842,priming,,2026.1.3,60.09747822981398,2026-05-06 10h20.35.192291 -0700,
GR_Congruent_RedCue_RedProbe_Bottom,GreenGaborBoth.png,RedGaborBoth.png,GreenGaborBoth.png,RedGaborDisappearBottom.png,Red.mp3,red,bottom,55,55,0,,,,0,55,55,49,1120.3362177500003,,,,,,,,,,,,,,,,bottom,,,,,,,,1120.320762417,1121.103371958,1121.1035512500002,1126.352972875,1126.3626960000001,1127.6030744170002,1127.6048377920001,1129.1868898330004,1129.188788542,1130.5538982080002,mostlygreen,FinalRedContrast,FinalGreenContrast,1130.5552400420002,1132.887460042,3,050626kl,001,2026-05-06_10h20.34.842,priming,,2026.1.3,60.09747822981398,2026-05-06 10h20.35.192291 -0700,
RR_non_riv_catch_GreenCue_RedProbe_Top,Blank.png,RedGaborBoth.png,Blank.png,RedGaborDisappearTop.png,Green.mp3,green,top,56,56,0,,,,0,56,56,74,1132.9030275,,,,,,,,,,,,,,,,top,,,,,,,,1132.890433,1134.803357625,1134.803523083,1140.053156417,1140.0624480000001,1141.3030617500003,1141.304906417,1143.336825292,1143.338339167,1146.0706813330003,allred,FinalRedContrast,FinalGreenContrast,1146.0715198330004,1149.137230833,4,050626kl,001,2026-05-06_10h20.34.842,priming,,2026.1.3,60.09747822981398,2026-05-06 10h20.35.192291 -0700,
GR_Congruent_GreenCue_GreenProbe_Top,GreenGaborBoth.png,RedGaborBoth.png,GreenGaborDisappearTop.png,RedGaborBoth.png,Green.mp3,green,top,57,57,0,,,,0,57,57,42,1149.1529812080003,,,,,,,,,,,,,,,,top,,,,,,,,1149.137391917,1151.253425542,1151.2536164580001,1156.503151167,1156.513505375,1157.753051833,1157.75494225,1159.2535660830004,1159.2549599170002,1161.070579667,mostlygreen,FinalRedContrast,FinalGreenContrast,1161.0715685,1163.520569833,3,050626kl,001,2026-05-06_10h20.34.842,priming,,2026.1.3,60.09747822981398,2026-05-06 10h20.35.192291 -0700,
GG_non_riv_catch_GreenCue_GreenProbe_Top,GreenGaborBoth.png,Blank.png,GreenGaborDisappearTop.png,Blank.png,Green.mp3,green,top,58,58,0,,,,0,58,58,78,1163.5363339170003,,,,,,,,,,,,,,,,top,,,,,,,,1163.5207075420003,1204.770719042,1204.7710673330002,1210.0200984580001,1210.030347167,1211.2700247080002,1211.272254125,1212.470453333,1212.472215458,1214.670892,allgreen,FinalRedContrast,FinalGreenContrast,1214.6721628330001,1216.604574292,4,050626kl,001,2026-05-06_10h20.34.842,priming,,2026.1.3,60.09747822981398,2026-05-06 10h20.35.192291 -0700,
GR_Incongruent_GreenCue_RedProbe_Top,GreenGaborBoth.png,RedGaborBoth.png,GreenGaborBoth.png,RedGaborDisappearTop.png,Green.mp3,green,top,59,59,0,,,,0,59,59,70,1216.6199124170003,,,,,,,,,,,,,,,,top,,,,,,,,1216.6050503750002,1218.453743,1218.453921542,1223.703396583,1223.714956708,1224.9533651250003,1224.9549566670003,1225.6037861250002,1225.605487625,1227.770942917,mostlyred,FinalRedContrast,FinalGreenContrast,1227.7721753330002,1230.304155625,3,050626kl,001,2026-05-06_10h20.34.842,priming,,2026.1.3,60.09747822981398,2026-05-06 10h20.35.192291 -0700,
GR_Congruent_GreenCue_GreenProbe_Top,GreenGaborBoth.png,RedGaborBoth.png,GreenGaborDisappearTop.png,RedGaborBoth.png,Green.mp3,green,top,60,60,0,,,,0,60,60,34,1230.319980917,,,,,,,,,,,,,,,,top,,,,,,,,1230.3044560000003,1232.203926708,1232.2041127920002,1237.4534828750002,1237.4638357920003,1238.7033510420001,1238.7054697920003,1239.6217431670002,1239.622020833,1240.7880840420003,mostlyred,FinalRedContrast,FinalGreenContrast,1240.788374833,1242.4376676670004,4,050626kl,001,2026-05-06_10h20.34.842,priming,,2026.1.3,60.09747822981398,2026-05-06 10h20.35.192291 -0700,
GR_Incongruent_RedCue_GreenProbe_Top,GreenGaborBoth.png,RedGaborBoth.png,GreenGaborDisappearTop.png,RedGaborBoth.png,Red.mp3,red,top,61,61,0,,,,0,61,61,12,1242.4532671250004,,,,,,,,,,,,,,,,top,,,,,,,,1242.4412200420002,1243.8703622500002,1243.870537833,1249.120199125,1249.1304822500001,1250.3701096250002,1250.3720882080002,1251.170673875,1251.172178333,1252.7542819170003,mostlyred,FinalRedContrast,FinalGreenContrast,1252.755719833,1255.188178125,3,050626kl,001,2026-05-06_10h20.34.842,priming,,2026.1.3,60.09747822981398,2026-05-06 10h20.35.192291 -0700,
GR_Incongruent_RedCue_GreenProbe_Top,GreenGaborBoth.png,RedGaborBoth.png,GreenGaborDisappearTop.png,RedGaborBoth.png,Red.mp3,red,top,62,62,0,,,,0,62,62,28,1255.2034022500002,,,,,,,,,,,,,,,,top,,,,,,,,1255.1884035830003,1259.2871354170002,1259.2873165,1264.536849917,1264.5471190000003,1265.786751875,1265.7887314170002,1266.770611167,1266.7716970830002,1268.6709626670004,evensplit,FinalRedContrast,FinalGreenContrast,1268.6723322920002,1270.571010833,3,050626kl,001,2026-05-06_10h20.34.842,priming,,2026.1.3,60.09747822981398,2026-05-06 10h20.35.192291 -0700,
RR_non_riv_catch_RedCue_RedProbe_Top,Blank.png,RedGaborBoth.png,Blank.png,RedGaborDisappearTop.png,Red.mp3,red,top,63,63,0,,,,0,63,63,72,1270.5867725000003,,,,,,,,,,,,,,,,top,,,,,,,,1270.571581708,1272.370850583,1272.371039833,1277.620262333,1277.6292105000002,1278.870191292,1278.872046042,1279.5711501670003,1279.5723965830002,1281.237705167,allred,FinalRedContrast,FinalGreenContrast,1281.2383976670003,1283.754338875,3,050626kl,001,2026-05-06_10h20.34.842,priming,,2026.1.3,60.09747822981398,2026-05-06 10h20.35.192291 -0700,
GR_Congruent_RedCue_RedProbe_Top,GreenGaborBoth.png,RedGaborBoth.png,GreenGaborBoth.png,RedGaborDisappearTop.png,Red.mp3,red,top,64,64,0,,,,0,64,64,48,1283.7700517080002,,,,,,,,,,,,,,,,top,,,,,,,,1283.7545277500003,1286.587552,1286.587744292,1291.836952,1291.8475855830002,1293.0870131250003,1293.08894,1295.3206720420003,1295.322350083,1297.2545071670002,mostlyred,FinalRedContrast,FinalGreenContrast,1297.255976042,1299.3883700830002,5,050626kl,001,2026-05-06_10h20.34.842,priming,,2026.1.3,60.09747822981398,2026-05-06 10h20.35.192291 -0700,
GR_Incongruent_GreenCue_RedProbe_Bottom,GreenGaborBoth.png,RedGaborBoth.png,GreenGaborBoth.png,RedGaborDisappearBottom.png,Green.mp3,green,bottom,65,65,0,,,,0,65,65,7,1299.4035237920002,,,,,,,,,,,,,,,,bottom,,,,,,,,1299.392024708,1302.2538636250001,1302.2540347080003,1307.503623083,1307.5137520000003,1308.7536357920003,1308.755537167,1310.104016667,1310.106230292,1312.1716888330002,mostlyred,FinalRedContrast,FinalGreenContrast,1312.1723444580002,1315.387792,3,050626kl,001,2026-05-06_10h20.34.842,priming,,2026.1.3,60.09747822981398,2026-05-06 10h20.35.192291 -0700,
GR_Incongruent_RedCue_GreenProbe_Bottom,GreenGaborBoth.png,RedGaborBoth.png,GreenGaborDisappearBottom.png,RedGaborBoth.png,Red.mp3,red,bottom,66,66,0,,,,0,66,66,53,1315.40353125,,,,,,,,,,,,,,,,bottom,,,,,,,,1315.3904804170002,1329.6542427500003,1329.654541167,1334.9038163750001,1334.9141964580003,1336.153801417,1336.1558769580001,1336.8208667500003,1336.8224596250002,1338.771242708,allred,FinalRedContrast,FinalGreenContrast,1338.7726470000002,1340.7378792080003,3,050626kl,001,2026-05-06_10h20.34.842,priming,,2026.1.3,60.09747822981398,2026-05-06 10h20.35.192291 -0700,
GR_Congruent_GreenCue_GreenProbe_Top,GreenGaborBoth.png,RedGaborBoth.png,GreenGaborDisappearTop.png,RedGaborBoth.png,Green.mp3,green,top,67,67,0,,,,0,67,67,66,1340.7536515830002,,,,,,,,,,,,,,,,top,,,,,,,,1340.7407941670003,1342.9040520420003,1342.9042207920002,1348.153827042,1348.1639975830003,1349.403735583,1349.4057039170002,1350.771316458,1350.7721930830003,1352.5712496670003,allred,FinalRedContrast,FinalGreenContrast,1352.5726209170002,1353.8715081250002,3,050626kl,001,2026-05-06_10h20.34.842,priming,,2026.1.3,60.09747822981398,2026-05-06 10h20.35.192291 -0700,
GR_Congruent_RedCue_RedProbe_Top,GreenGaborBoth.png,RedGaborBoth.png,GreenGaborBoth.png,RedGaborDisappearTop.png,Red.mp3,red,top,68,68,0,,,,0,68,68,24,1353.8870823750003,,,,,,,,,,,,,,,,top,,,,,,,,1353.8742160830002,1355.370732583,1355.370899042,1360.6203889580001,1360.629148208,1361.8703569170002,1361.872322917,1365.6042406670003,1365.6056881250001,1368.4546932500002,mostlyred,FinalRedContrast,FinalGreenContrast,1368.4559865830001,1372.2879915830003,2,050626kl,001,2026-05-06_10h20.34.842,priming,,2026.1.3,60.09747822981398,2026-05-06 10h20.35.192291 -0700,
GR_Congruent_GreenCue_GreenProbe_Bottom,GreenGaborBoth.png,RedGaborBoth.png,GreenGaborDisappearBottom.png,RedGaborBoth.png,Green.mp3,green,bottom,69,69,0,,,,0,69,69,67,1372.303803417,,,,,,,,,,,,,,,,bottom,,,,,,,,1372.2909489580002,1378.587585792,1378.5878415830002,1383.83717625,1383.8474930830002,1385.0872194580002,1385.0898590830002,1385.9709561670002,1385.9719586670003,1386.988182,mostlyred,FinalRedContrast,FinalGreenContrast,1386.988593083,1388.1718150420002,3,050626kl,001,2026-05-06_10h20.34.842,priming,,2026.1.3,60.09747822981398,2026-05-06 10h20.35.192291 -0700,
GR_Congruent_GreenCue_GreenProbe_Bottom,GreenGaborBoth.png,RedGaborBoth.png,GreenGaborDisappearBottom.png,RedGaborBoth.png,Green.mp3,green,bottom,70,70,0,,,,0,70,70,35,1388.187097208,,,,,,,,,,,,,,,,bottom,,,,,,,,1388.1720542500002,1390.5042135000003,1390.5043880830003,1395.7540305420002,1395.7653974580003,1397.003859208,1397.0062375420002,1398.2710509170001,1398.271941417,1399.4880900420003,mostlyred,FinalRedContrast,FinalGreenContrast,1399.4889136670004,1400.354644042,3,050626kl,001,2026-05-06_10h20.34.842,priming,,2026.1.3,60.09747822981398,2026-05-06 10h20.35.192291 -0700,
GR_Congruent_RedCue_RedProbe_Top,GreenGaborBoth.png,RedGaborBoth.png,GreenGaborBoth.png,RedGaborDisappearTop.png,Red.mp3,red,top,71,71,0,,,,0,71,71,0,1400.3704736250002,,,,,,,,,,,,,,,,top,,,,,,,,1400.3574240000003,1402.387480458,1402.38764975,1407.6374904580002,1407.648236083,1408.8872998750003,1408.8892863750002,1410.2712448330003,1410.2730180830004,1411.454790583,evensplit,FinalRedContrast,FinalGreenContrast,1411.456263125,1412.3714972500002,3,050626kl,001,2026-05-06_10h20.34.842,priming,,2026.1.3,60.09747822981398,2026-05-06 10h20.35.192291 -0700,
GR_Incongruent_GreenCue_RedProbe_Bottom,GreenGaborBoth.png,RedGaborBoth.png,GreenGaborBoth.png,RedGaborDisappearBottom.png,Green.mp3,green,bottom,72,72,0,,,,0,72,72,31,1412.387218708,,,,,,,,,,,,,,,,bottom,,,,,,,,1412.3747480420002,1413.5877259170002,1413.587898708,1418.8373409580004,1418.8459093750002,1420.0873275420004,1420.089544083,1421.104570042,1421.1060809580003,1422.8714790000004,mostlyred,FinalRedContrast,FinalGreenContrast,1422.8729307920003,1425.5881725,3,050626kl,001,2026-05-06_10h20.34.842,priming,,2026.1.3,60.09747822981398,2026-05-06 10h20.35.192291 -0700,
GR_Congruent_RedCue_RedProbe_Top,GreenGaborBoth.png,RedGaborBoth.png,GreenGaborBoth.png,RedGaborDisappearTop.png,Red.mp3,red,top,73,73,0,,,,0,73,73,56,1425.6039422500003,,,,,,,,,,,,,,,,bottom,,,,,,,,1425.5898683330001,1426.370912708,1426.3710797920003,1431.6207279170003,1431.630178208,1432.870659625,1432.8730730000002,1433.3380471250002,1433.338610542,1437.8048398750002,mostlyred,FinalRedContrast,FinalGreenContrast,1437.806440667,1439.538216042,2,050626kl,001,2026-05-06_10h20.34.842,priming,,2026.1.3,60.09747822981398,2026-05-06 10h20.35.192291 -0700,
GR_Congruent_GreenCue_GreenProbe_Bottom,GreenGaborBoth.png,RedGaborBoth.png,GreenGaborDisappearBottom.png,RedGaborBoth.png,Green.mp3,green,bottom,74,74,0,,,,0,74,74,27,1439.5539169170002,,,,,,,,,,,,,,,,bottom,,,,,,,,1439.5411154170001,1440.787755542,1440.7879244170003,1446.037484042,1446.045538625,1447.2874794580002,1447.2893530420001,1448.721182708,1448.7230558750002,1449.9049405,evensplit,FinalRedContrast,FinalGreenContrast,1449.9062800830002,1452.7050544580002,4,050626kl,001,2026-05-06_10h20.34.842,priming,,2026.1.3,60.09747822981398,2026-05-06 10h20.35.192291 -0700,
GR_Incongruent_RedCue_GreenProbe_Top,GreenGaborBoth.png,RedGaborBoth.png,GreenGaborDisappearTop.png,RedGaborBoth.png,Red.mp3,red,top,75,75,0,,,,0,75,75,4,1452.72077575,,,,,,,,,,,,,,,,top,,,,,,,,1452.7073086670002,1453.971146292,1453.971330625,1459.2208221670003,1459.230593917,1460.470854917,1460.472579583,1461.2712352080002,1461.2729708750003,1463.2216008750001,evensplit,FinalRedContrast,FinalGreenContrast,1463.2225344580002,1465.021698208,3,050626kl,001,2026-05-06_10h20.34.842,priming,,2026.1.3,60.09747822981398,2026-05-06 10h20.35.192291 -0700,
GR_Congruent_GreenCue_GreenProbe_Top,GreenGaborBoth.png,RedGaborBoth.png,GreenGaborDisappearTop.png,RedGaborBoth.png,Green.mp3,green,top,76,76,0,,,,0,76,76,10,1465.037333917,,,,,,,,,,,,,,,,top,,,,,,,,1465.02461975,1466.637836667,1466.638012667,1471.88749525,1471.896160833,1473.1374742500002,1473.1393834170003,1473.955743042,1473.95628325,1475.954912708,evensplit,FinalRedContrast,FinalGreenContrast,1475.9563882920002,1478.055194208,3,050626kl,001,2026-05-06_10h20.34.842,priming,,2026.1.3,60.09747822981398,2026-05-06 10h20.35.192291 -0700,
GR_Incongruent_GreenCue_RedProbe_Top,GreenGaborBoth.png,RedGaborBoth.png,GreenGaborBoth.png,RedGaborDisappearTop.png,Green.mp3,green,top,77,77,0,,,,0,77,77,6,1478.0707256670003,,,,,,,,,,,,,,,,top,,,,,,,,1478.0554671670002,1479.1712672920003,1479.1714350830002,1484.4209337080001,1484.4308502920003,1485.6708831670003,1485.6727933750003,1487.3047326670003,1487.3065445420002,1488.338492542,mostlyred,FinalRedContrast,FinalGreenContrast,1488.339835667,1490.4384836250001,3,050626kl,001,2026-05-06_10h20.34.842,priming,,2026.1.3,60.09747822981398,2026-05-06 10h20.35.192291 -0700,
GR_Incongruent_RedCue_GreenProbe_Bottom,GreenGaborBoth.png,RedGaborBoth.png,GreenGaborDisappearBottom.png,RedGaborBoth.png,Red.mp3,red,bottom,78,78,0,,,,0,78,78,37,1490.454187333,,,,,,,,,,,,,,,,bottom,,,,,,,,1490.441956875,1492.9713695,1492.9715364170002,1498.2212334170003,1498.2321394580003,1499.4708965,1499.4730560830003,1500.254676042,1500.256591542,1502.055103875,mostlyred,FinalRedContrast,FinalGreenContrast,1502.0564395420001,1503.1883815830001,2,050626kl,001,2026-05-06_10h20.34.842,priming,,2026.1.3,60.09747822981398,2026-05-06 10h20.35.192291 -0700,
GR_Congruent_GreenCue_GreenProbe_Bottom,GreenGaborBoth.png,RedGaborBoth.png,GreenGaborDisappearBottom.png,RedGaborBoth.png,Green.mp3,green,bottom,79,79,0,,,,0,79,79,51,1503.2041516250001,,,,,,,,,,,,,,,,bottom,,,,,,,,1503.1907151670002,1512.394457375,1512.39473125,1517.6375940830003,1517.6481483330003,1518.8876130830004,1518.8895027500002,1519.8047860420002,1519.8060896250004,1521.8384060830003,evensplit,FinalRedContrast,FinalGreenContrast,1521.8394236670001,1523.6384224170001,3,050626kl,001,2026-05-06_10h20.34.842,priming,,2026.1.3,60.09747822981398,2026-05-06 10h20.35.192291 -0700,
GR_Incongruent_RedCue_GreenProbe_Bottom,GreenGaborBoth.png,RedGaborBoth.png,GreenGaborDisappearBottom.png,RedGaborBoth.png,Red.mp3,red,bottom,80,0,1,,,,1,0,80,61,1523.654185208,,,,,,,,,,,,,,,,bottom,,,,,,,,1523.642451792,1527.3714786250002,1527.3716572500002,1532.6210513330002,1532.631709875,1533.8710431250001,1533.873712125,1534.904805875,1534.906118458,1536.671889667,allred,FinalRedContrast,FinalGreenContrast,1536.6732710830001,1539.8886096250003,3,050626kl,001,2026-05-06_10h20.34.842,priming,,2026.1.3,60.09747822981398,2026-05-06 10h20.35.192291 -0700,
GR_Congruent_RedCue_RedProbe_Top,GreenGaborBoth.png,RedGaborBoth.png,GreenGaborBoth.png,RedGaborDisappearTop.png,Red.mp3,red,top,81,1,1,,,,1,1,81,24,1539.904502625,,,,,,,,,,,,,,,,top,,,,,,,,1539.888928375,1774.193088083,1774.1933858750003,1779.438612542,1779.4508839170003,1780.6885755420003,1780.690385292,1781.4722968750002,1781.47432075,1782.9727402920003,mostlyred,FinalRedContrast,FinalGreenContrast,1782.9733437500004,1783.82265775,3,050626kl,001,2026-05-06_10h20.34.842,priming,,2026.1.3,60.09747822981398,2026-05-06 10h20.35.192291 -0700,
GR_Incongruent_RedCue_GreenProbe_Top,GreenGaborBoth.png,RedGaborBoth.png,GreenGaborDisappearTop.png,RedGaborBoth.png,Red.mp3,red,top,82,2,1,,,,1,2,82,60,1783.8384086250003,,,,,,,,,,,,,,,,top,,,,,,,,1783.8229515000003,1786.7388625420003,1786.7390532500003,1791.9884725420002,1791.9970911670002,1793.2384608750003,1793.2408235000003,1794.2555390000002,1794.2571157080001,1795.2727678330002,evensplit,FinalRedContrast,FinalGreenContrast,1795.273785542,1796.0061042080001,3,050626kl,001,2026-05-06_10h20.34.842,priming,,2026.1.3,60.09747822981398,2026-05-06 10h20.35.192291 -0700,
GR_Congruent_GreenCue_GreenProbe_Bottom,GreenGaborBoth.png,RedGaborBoth.png,GreenGaborDisappearBottom.png,RedGaborBoth.png,Green.mp3,green,bottom,83,3,1,,,,1,3,83,35,1796.021735667,,,,,,,,,,,,,,,,bottom,,,,,,,,1796.0093485420002,1796.9055170830002,1796.9056849580002,1802.155310042,1802.1634051670003,1803.405246333,1803.4072767500002,1804.12283725,1804.1237650830003,1805.2894082920002,evensplit,FinalRedContrast,FinalGreenContrast,1805.2908150830003,1806.139436292,3,050626kl,001,2026-05-06_10h20.34.842,priming,,2026.1.3,60.09747822981398,2026-05-06 10h20.35.192291 -0700,
GR_Congruent_RedCue_RedProbe_Bottom,GreenGaborBoth.png,RedGaborBoth.png,GreenGaborBoth.png,RedGaborDisappearBottom.png,Red.mp3,red,bottom,84,4,1,,,,1,4,84,25,1806.1552499170002,,,,,,,,,,,,,,,,bottom,,,,,,,,1806.1416333750003,1806.955635667,1806.9558124170003,1812.2052872080003,1812.2148917920003,1813.455290417,1813.4570976670002,1814.2726621250004,1814.2731761670002,1815.0894466670002,evensplit,FinalRedContrast,FinalGreenContrast,1815.090663417,1816.3728505000004,2,050626kl,001,2026-05-06_10h20.34.842,priming,,2026.1.3,60.09747822981398,2026-05-06 10h20.35.192291 -0700,
GR_Incongruent_GreenCue_RedProbe_Bottom,GreenGaborBoth.png,RedGaborBoth.png,GreenGaborBoth.png,RedGaborDisappearBottom.png,Green.mp3,green,bottom,85,5,1,,,,1,5,85,47,1816.3886096670003,,,,,,,,,,,,,,,,bottom,,,,,,,,1816.375254083,1817.905582542,1817.9057520420001,1823.155294792,1823.166061625,1824.4052536250001,1824.4071939580003,1825.189104125,1825.19038,1825.9561212920003,evensplit,FinalRedContrast,FinalGreenContrast,1825.9575843750004,1826.789532875,4,050626kl,001,2026-05-06_10h20.34.842,priming,,2026.1.3,60.09747822981398,2026-05-06 10h20.35.192291 -0700,
GR_Incongruent_GreenCue_RedProbe_Bottom,GreenGaborBoth.png,RedGaborBoth.png,GreenGaborBoth.png,RedGaborDisappearBottom.png,Green.mp3,green,bottom,86,6,1,,,,1,6,86,39,1826.805206292,,,,,,,,,,,,,,,,bottom,,,,,,,,1826.789758083,1828.3226407500001,1828.322820292,1833.571962167,1833.581729208,1834.8219543750001,1834.8238313330003,1836.239001458,1836.240919333,1838.4561401250003,evensplit,FinalRedContrast,FinalGreenContrast,1838.4575344170003,1839.9394294170002,3,050626kl,001,2026-05-06_10h20.34.842,priming,,2026.1.3,60.09747822981398,2026-05-06 10h20.35.192291 -0700,
GR_Incongruent_RedCue_GreenProbe_Bottom,GreenGaborBoth.png,RedGaborBoth.png,GreenGaborDisappearBottom.png,RedGaborBoth.png,Red.mp3,red,bottom,87,7,1,,,,1,7,87,5,1839.955245833,,,,,,,,,,,,,,,,bottom,,,,,,,,1839.9419498330003,1841.922358375,1841.922532167,1847.1721254580002,1847.1822605000002,1848.4220862500001,1848.423985292,1849.0892111670005,1849.0911368749998,1850.3895602079997,mostlygreen,FinalRedContrast,FinalGreenContrast,1850.3909873750003,1851.9562580420002,2,050626kl,001,2026-05-06_10h20.34.842,priming,,2026.1.3,60.09747822981398,2026-05-06 10h20.35.192291 -0700,
GR_Congruent_GreenCue_GreenProbe_Top,GreenGaborBoth.png,RedGaborBoth.png,GreenGaborDisappearTop.png,RedGaborBoth.png,Green.mp3,green,top,88,8,1,,,,1,8,88,10,1851.9719345830003,,,,,,,,,,,,,,,,top,,,,,,,,1851.9608719170005,1853.1891142500003,1853.1892916250004,1858.438776083,1858.4472449999998,1859.688706542,1859.690618,1860.3058522080005,1860.3077627500002,1861.9396485419998,mostlygreen,FinalRedContrast,FinalGreenContrast,1861.940189458,1862.922868917,3,050626kl,001,2026-05-06_10h20.34.842,priming,,2026.1.3,60.09747822981398,2026-05-06 10h20.35.192291 -0700,
GG_non_riv_catch_RedCue_GreenProbe_Bottom,GreenGaborBoth.png,Blank.png,GreenGaborDisappearBottom.png,Blank.png,Red.mp3,red,bottom,89,9,1,,,,1,9,89,77,1862.9386385829998,,,,,,,,,,,,,,,,bottom,,,,,,,,1862.924529542,1863.5890979170003,1863.589261042,1868.8387105830002,1868.8463166670003,1870.0887277920006,1870.0909925,1870.7558580830005,1870.7568047500004,1871.8228913750004,allgreen,FinalRedContrast,FinalGreenContrast,1871.8242798329998,1873.5729415420005,3,050626kl,001,2026-05-06_10h20.34.842,priming,,2026.1.3,60.09747822981398,2026-05-06 10h20.35.192291 -0700,
GG_non_riv_catch_GreenCue_GreenProbe_Bottom,GreenGaborBoth.png,Blank.png,GreenGaborDisappearBottom.png,Blank.png,Green.mp3,green,bottom,90,10,1,,,,1,10,90,79,1873.5886531250003,,,,,,,,,,,,,,,,bottom,,,,,,,,1873.5758922500004,1874.6390987500004,1874.6393090420001,1879.888823875,1879.8993504579998,1881.138848917,1881.140871917,1881.8060011250004,1881.8080004999997,1882.7068420420005,allgreen,FinalRedContrast,FinalGreenContrast,1882.707712125,1885.8731546250006,4,050626kl,001,2026-05-06_10h20.34.842,priming,,2026.1.3,60.09747822981398,2026-05-06 10h20.35.192291 -0700,
GR_Congruent_RedCue_RedProbe_Top,GreenGaborBoth.png,RedGaborBoth.png,GreenGaborBoth.png,RedGaborDisappearTop.png,Red.mp3,red,top,91,11,1,,,,1,11,91,8,1885.8887912080004,,,,,,,,,,,,,,,,top,,,,,,,,1885.8757702919997,1889.6225125830001,1889.62268825,1894.8723182919998,1894.8833800830002,1896.122224833,1896.1240585420005,1897.455993,1897.4574762080006,1898.3230666250006,evensplit,FinalRedContrast,FinalGreenContrast,1898.3235487080005,1899.4730268750004,3,050626kl,001,2026-05-06_10h20.34.842,priming,,2026.1.3,60.09747822981398,2026-05-06 10h20.35.192291 -0700,
GR_Congruent_RedCue_RedProbe_Bottom,GreenGaborBoth.png,RedGaborBoth.png,GreenGaborBoth.png,RedGaborDisappearBottom.png,Red.mp3,red,bottom,92,12,1,,,,1,12,92,1,1899.4887873330003,,,,,,,,,,,,,,,,bottom,,,,,,,,1899.4732980000003,1900.2724712080003,1900.2726464170005,1905.5221740829998,1905.5306737080004,1906.7721951670005,1906.774165583,1907.4225953330001,1907.4241269999998,1908.2730065,evensplit,FinalRedContrast,FinalGreenContrast,1908.273996333,1909.5230349580002,3,050626kl,001,2026-05-06_10h20.34.842,priming,,2026.1.3,60.09747822981398,2026-05-06 10h20.35.192291 -0700,
GR_Incongruent_GreenCue_RedProbe_Top,GreenGaborBoth.png,RedGaborBoth.png,GreenGaborBoth.png,RedGaborDisappearTop.png,Green.mp3,green,top,93,13,1,,,,1,13,93,62,1909.5387985000002,,,,,,,,,,,,,,,,top,,,,,,,,1909.5258210830002,1910.2058123749998,1910.2059962919998,1915.4555787499999,1915.4654194170002,1916.705568375,1916.707391208,1917.5288313329997,1917.5291377919998,1919.1068387500004,mostlyred,FinalRedContrast,FinalGreenContrast,1919.1074824580005,1920.5731490419998,3,050626kl,001,2026-05-06_10h20.34.842,priming,,2026.1.3,60.09747822981398,2026-05-06 10h20.35.192291 -0700,
GR_Congruent_GreenCue_GreenProbe_Bottom,GreenGaborBoth.png,RedGaborBoth.png,GreenGaborDisappearBottom.png,RedGaborBoth.png,Green.mp3,green,bottom,94,14,1,,,,1,14,94,59,1920.588881917,,,,,,,,,,,,,,,,bottom,,,,,,,,1920.5733691669998,1921.689318542,1921.689497125,1926.9389635829998,1926.9476156670003,1928.1890140830005,1928.1908872500003,1929.6561313750003,1929.658176292,1930.3731467080001,mostlygreen,FinalRedContrast,FinalGreenContrast,1930.3740934580005,1931.8731861669999,3,050626kl,001,2026-05-06_10h20.34.842,priming,,2026.1.3,60.09747822981398,2026-05-06 10h20.35.192291 -0700,
GR_Congruent_GreenCue_GreenProbe_Top,GreenGaborBoth.png,RedGaborBoth.png,GreenGaborDisappearTop.png,RedGaborBoth.png,Green.mp3,green,top,95,15,1,,,,1,15,95,50,1931.8889153750001,,,,,,,,,,,,,,,,top,,,,,,,,1931.8733675830003,1934.122628083,1934.1227987080006,1939.3722821249999,1939.3804492920003,1940.6223086249997,1940.6246891670003,1941.672802083,1941.674341333,1942.7069567920003,mostlyred,FinalRedContrast,FinalGreenContrast,1942.7074604169998,1943.8398527080003,3,050626kl,001,2026-05-06_10h20.34.842,priming,,2026.1.3,60.09747822981398,2026-05-06 10h20.35.192291 -0700,
GR_Incongruent_RedCue_GreenProbe_Bottom,GreenGaborBoth.png,RedGaborBoth.png,GreenGaborDisappearBottom.png,RedGaborBoth.png,Red.mp3,red,bottom,96,16,1,,,,1,16,96,53,1943.8556952920003,,,,,,,,,,,,,,,,bottom,,,,,,,,1943.8425430829998,1944.5727049580005,1944.5728856669998,1949.822500625,1949.833260625,1951.07236375,1951.0739070000004,1951.8561212500003,1951.8578763330001,1953.8901449170003,mostlyred,FinalRedContrast,FinalGreenContrast,1953.891225125,1955.2065521669997,4,050626kl,001,2026-05-06_10h20.34.842,priming,,2026.1.3,60.09747822981398,2026-05-06 10h20.35.192291 -0700,
GR_Incongruent_GreenCue_RedProbe_Bottom,GreenGaborBoth.png,RedGaborBoth.png,GreenGaborBoth.png,RedGaborDisappearBottom.png,Green.mp3,green,bottom,97,17,1,,,,1,17,97,55,1955.2222025000005,,,,,,,,,,,,,,,,bottom,,,,,,,,1955.209564792,1957.0561336249998,1957.0563050000005,1962.3059157920002,1962.316239958,1963.5558826250003,1963.5580318750003,1964.4419402079998,1964.4421985000004,1965.4566028330005,evensplit,FinalRedContrast,FinalGreenContrast,1965.4579882920002,1966.5066740420002,2,050626kl,001,2026-05-06_10h20.34.842,priming,,2026.1.3,60.09747822981398,2026-05-06 10h20.35.192291 -0700,
GR_Incongruent_GreenCue_RedProbe_Top,GreenGaborBoth.png,RedGaborBoth.png,GreenGaborBoth.png,RedGaborDisappearTop.png,Green.mp3,green,top,98,18,1,,,,1,18,98,6,1966.5223598329999,,,,,,,,,,,,,,,,top,,,,,,,,1966.5068726250006,1967.4227772079998,1967.4229435829998,1972.672557708,1972.6827737919998,1973.922484708,1973.92444175,1976.175894417,1976.1761542079998,1979.9733904999998,evensplit,FinalRedContrast,FinalGreenContrast,1979.974037167,1981.123387792,2,050626kl,001,2026-05-06_10h20.34.842,priming,,2026.1.3,60.09747822981398,2026-05-06 10h20.35.192291 -0700,
GR_Incongruent_GreenCue_RedProbe_Top,GreenGaborBoth.png,RedGaborBoth.png,GreenGaborBoth.png,RedGaborDisappearTop.png,Green.mp3,green,top,99,19,1,,,,1,19,99,54,1981.139030375,,,,,,,,,,,,,,,,top,,,,,,,,1981.1237686250001,1982.072861917,1982.0730345830002,1987.322553208,1987.3339685830001,1988.572526208,1988.5745215000002,1989.456270917,1989.4577169170002,1991.2738527920005,mostlyred,FinalRedContrast,FinalGreenContrast,1991.2745548750004,1993.2905622080002,2,050626kl,001,2026-05-06_10h20.34.842,priming,,2026.1.3,60.09747822981398,2026-05-06 10h20.35.192291 -0700,
GR_Congruent_RedCue_RedProbe_Top,GreenGaborBoth.png,RedGaborBoth.png,GreenGaborBoth.png,RedGaborDisappearTop.png,Red.mp3,red,top,100,20,1,,,,1,20,100,64,1993.3057368330005,,,,,,,,,,,,,,,,top,,,,,,,,1993.2941516670003,1995.2061325830005,1995.2063052919998,2000.4559144170003,2000.4662377079999,2001.7059989579998,2001.7077689580005,2002.3064948329998,2002.3077358750002,2004.9235168750006,mostlyred,FinalRedContrast,FinalGreenContrast,2004.924104708,2007.0068824579998,3,050626kl,001,2026-05-06_10h20.34.842,priming,,2026.1.3,60.09747822981398,2026-05-06 10h20.35.192291 -0700,
GR_Congruent_RedCue_RedProbe_Top,GreenGaborBoth.png,RedGaborBoth.png,GreenGaborBoth.png,RedGaborDisappearTop.png,Red.mp3,red,top,101,21,1,,,,1,21,101,0,2007.0225715419997,,,,,,,,,,,,,,,,top,,,,,,,,2007.0071364170003,2007.6228843330005,2007.6230620000001,2012.8727713330004,2012.8819749170002,2014.122600583,2014.1245101669997,2014.7896539580001,2014.791671083,2016.8400298330002,mostlyred,FinalRedContrast,FinalGreenContrast,2016.8416115000005,2018.5900825000003,2,050626kl,001,2026-05-06_10h20.34.842,priming,,2026.1.3,60.09747822981398,2026-05-06 10h20.35.192291 -0700,
GR_Congruent_GreenCue_GreenProbe_Top,GreenGaborBoth.png,RedGaborBoth.png,GreenGaborDisappearTop.png,RedGaborBoth.png,Green.mp3,green,top,102,22,1,,,,1,22,102,42,2018.6058379170004,,,,,,,,,,,,,,,,top,,,,,,,,2018.592958625,2020.056384375,2020.0565693330004,2025.30600525,2025.315384,2026.5559263330001,2026.5579051250002,2027.773029292,2027.7749628750003,2029.673470667,mostlyred,FinalRedContrast,FinalGreenContrast,2029.6748367920004,2030.973445,3,050626kl,001,2026-05-06_10h20.34.842,priming,,2026.1.3,60.09747822981398,2026-05-06 10h20.35.192291 -0700,
GR_Congruent_RedCue_RedProbe_Top,GreenGaborBoth.png,RedGaborBoth.png,GreenGaborBoth.png,RedGaborDisappearTop.png,Red.mp3,red,top,103,23,1,,,,1,23,103,40,2030.9891339580004,,,,,,,,,,,,,,,,top,,,,,,,,2030.9759944580005,2033.4729547500006,2033.4731271670003,2038.7228333750004,2038.7321484170002,2039.9727161249998,2039.9745521669997,2040.9731163749998,2040.974211458,2042.9236817080005,mostlyred,FinalRedContrast,FinalGreenContrast,2042.9245770829998,2044.6402734999997,2,050626kl,001,2026-05-06_10h20.34.842,priming,,2026.1.3,60.09747822981398,2026-05-06 10h20.35.192291 -0700,
GR_Incongruent_RedCue_GreenProbe_Top,GreenGaborBoth.png,RedGaborBoth.png,GreenGaborDisappearTop.png,RedGaborBoth.png,Red.mp3,red,top,104,24,1,,,,1,24,104,20,2044.655981458,,,,,,,,,,,,,,,,top,,,,,,,,2044.6404430830003,2046.323082458,2046.3232564579998,2051.572822042,2051.581695458,2052.822690208,2052.8246609170005,2054.206651792,2054.2079358329997,2055.356906708,mostlyred,FinalRedContrast,FinalGreenContrast,2055.357808917,2057.423601,3,050626kl,001,2026-05-06_10h20.34.842,priming,,2026.1.3,60.09747822981398,2026-05-06 10h20.35.192291 -0700,
GR_Congruent_RedCue_RedProbe_Top,GreenGaborBoth.png,RedGaborBoth.png,GreenGaborBoth.png,RedGaborDisappearTop.png,Red.mp3,red,top,105,25,1,,,,1,25,105,16,2057.439319458,,,,,,,,,,,,,,,,top,,,,,,,,2057.4238163330006,2058.7730629580005,2058.773246458,2064.022851333,2064.0327937080006,2065.2728026669997,2065.274716583,2066.0232703750003,2066.0246851670004,2067.773518208,mostlyred,FinalRedContrast,FinalGreenContrast,2067.774480042,2068.8902428750002,3,050626kl,001,2026-05-06_10h20.34.842,priming,,2026.1.3,60.09747822981398,2026-05-06 10h20.35.192291 -0700,
GR_Incongruent_GreenCue_RedProbe_Bottom,GreenGaborBoth.png,RedGaborBoth.png,GreenGaborBoth.png,RedGaborDisappearBottom.png,Green.mp3,green,bottom,106,26,1,,,,1,26,106,7,2068.905969958,,,,,,,,,,,,,,,,bottom,,,,,,,,2068.8930845830005,2069.7563845420004,2069.7565624579997,2075.0060713750004,2075.0143733750006,2076.2561134170005,2076.257890917,2077.079829,2077.0801674580002,2078.1569115830002,mostlyred,FinalRedContrast,FinalGreenContrast,2078.1579280420005,2079.6906296250004,2,050626kl,001,2026-05-06_10h20.34.842,priming,,2026.1.3,60.09747822981398,2026-05-06 10h20.35.192291 -0700,
GR_Incongruent_GreenCue_RedProbe_Top,GreenGaborBoth.png,RedGaborBoth.png,GreenGaborBoth.png,RedGaborDisappearTop.png,Green.mp3,green,top,107,27,1,,,,1,27,107,30,2079.706077417,,,,,,,,,,,,,,,,top,,,,,,,,2079.6908231250004,2081.1064450420004,2081.106618292,2086.356184375,2086.3657242080003,2087.6061847920005,2087.6081052080003,2088.890370417,2088.8909393750005,2090.4743697500003,mostlygreen,FinalRedContrast,FinalGreenContrast,2090.474782,2092.02365675,3,050626kl,001,2026-05-06_10h20.34.842,priming,,2026.1.3,60.09747822981398,2026-05-06 10h20.35.192291 -0700,
GR_Congruent_GreenCue_GreenProbe_Top,GreenGaborBoth.png,RedGaborBoth.png,GreenGaborDisappearTop.png,RedGaborBoth.png,Green.mp3,green,top,108,28,1,,,,1,28,108,66,2092.039413958,,,,,,,,,,,,,,,,top,,,,,,,,2092.02388225,2095.9231713330005,2095.92336525,2101.1728722499997,2101.182955375,2102.4228546670006,2102.4248124170003,2104.073467375,2104.074905625,2107.156981417,mostlygreen,FinalRedContrast,FinalGreenContrast,2107.157934792,2109.0740786250003,3,050626kl,001,2026-05-06_10h20.34.842,priming,,2026.1.3,60.09747822981398,2026-05-06 10h20.35.192291 -0700,
GR_Congruent_RedCue_RedProbe_Bottom,GreenGaborBoth.png,RedGaborBoth.png,GreenGaborBoth.png,RedGaborDisappearBottom.png,Red.mp3,red,bottom,109,29,1,,,,1,29,109,9,2109.089438042,,,,,,,,,,,,,,,,bottom,,,,,,,,2109.0766652919997,2110.573207,2110.573405167,2115.823135125,2115.8346718750004,2117.072822333,2117.074855083,2118.2735007080005,2118.275064958,2119.274206042,mostlyred,FinalRedContrast,FinalGreenContrast,2119.2745219170006,2121.8404418330006,3,050626kl,001,2026-05-06_10h20.34.842,priming,,2026.1.3,60.09747822981398,2026-05-06 10h20.35.192291 -0700,
GR_Congruent_GreenCue_GreenProbe_Bottom,GreenGaborBoth.png,RedGaborBoth.png,GreenGaborDisappearBottom.png,RedGaborBoth.png,Green.mp3,green,bottom,110,30,1,,,,1,30,110,51,2121.8562432080003,,,,,,,,,,,,,,,,bottom,,,,,,,,2121.8440596670002,2123.256660583,2123.256837042,2128.5062794170003,2128.5167383330004,2129.7563112499997,2129.758422542,2130.5568202500003,2130.558714917,2131.9904593329998,evensplit,FinalRedContrast,FinalGreenContrast,2131.99188525,2133.3572915,3,050626kl,001,2026-05-06_10h20.34.842,priming,,2026.1.3,60.09747822981398,2026-05-06 10h20.35.192291 -0700,
GR_Incongruent_GreenCue_RedProbe_Top,GreenGaborBoth.png,RedGaborBoth.png,GreenGaborBoth.png,RedGaborDisappearTop.png,Green.mp3,green,top,111,31,1,,,,1,31,111,22,2133.372877708,,,,,,,,,,,,,,,,top,,,,,,,,2133.357624625,2134.0399749170006,2134.0401635000003,2139.2896103750004,2139.2994249999997,2140.539674917,2140.541470875,2141.556833417,2141.558621042,2143.7905092920005,evensplit,FinalRedContrast,FinalGreenContrast,2143.791747375,2145.8577681250003,3,050626kl,001,2026-05-06_10h20.34.842,priming,,2026.1.3,60.09747822981398,2026-05-06 10h20.35.192291 -0700,
GR_Incongruent_RedCue_GreenProbe_Bottom,GreenGaborBoth.png,RedGaborBoth.png,GreenGaborDisappearBottom.png,RedGaborBoth.png,Red.mp3,red,bottom,112,32,1,,,,1,32,112,13,2145.8729512920004,,,,,,,,,,,,,,,,bottom,,,,,,,,2145.8602414170005,2148.556697875,2148.556866542,2153.806299042,2153.816978458,2155.0563063330005,2155.058145667,2156.0400998750006,2156.0420178750005,2157.3238016669998,allred,FinalRedContrast,FinalGreenContrast,2157.325288292,2158.1739080419998,3,050626kl,001,2026-05-06_10h20.34.842,priming,,2026.1.3,60.09747822981398,2026-05-06 10h20.35.192291 -0700,
RR_non_riv_catch_RedCue_RedProbe_Top,Blank.png,RedGaborBoth.png,Blank.png,RedGaborDisappearTop.png,Red.mp3,red,top,113,33,1,,,,1,33,113,72,2158.1897150830005,,,,,,,,,,,,,,,,top,,,,,,,,2158.17401975,2159.440224542,2159.440398417,2164.689784208,2164.6973691670005,2165.939758792,2165.9417653329997,2167.8574607920004,2167.8583850420005,2168.757270417,allred,FinalRedContrast,FinalGreenContrast,2168.7586704580003,2169.723939792,4,050626kl,001,2026-05-06_10h20.34.842,priming,,2026.1.3,60.09747822981398,2026-05-06 10h20.35.192291 -0700,
GR_Incongruent_GreenCue_RedProbe_Bottom,GreenGaborBoth.png,RedGaborBoth.png,GreenGaborBoth.png,RedGaborDisappearBottom.png,Green.mp3,green,bottom,114,34,1,,,,1,34,114,63,2169.739685917,,,,,,,,,,,,,,,,bottom,,,,,,,,2169.7269497500006,2171.173550917,2171.173753417,2176.4230500420003,2176.4315078330005,2177.6730984170003,2177.675135958,2178.840214542,2178.842157208,2180.023902792,mostlyred,FinalRedContrast,FinalGreenContrast,2180.0254425420003,2181.207281667,3,050626kl,001,2026-05-06_10h20.34.842,priming,,2026.1.3,60.09747822981398,2026-05-06 10h20.35.192291 -0700,
GR_Incongruent_RedCue_GreenProbe_Bottom,GreenGaborBoth.png,RedGaborBoth.png,GreenGaborDisappearBottom.png,RedGaborBoth.png,Red.mp3,red,bottom,115,35,1,,,,1,35,115,69,2181.2231112080003,,,,,,,,,,,,,,,,bottom,,,,,,,,2181.209367375,2182.923495667,2182.923669583,2188.173196583,2188.1830465420003,2189.423171375,2189.4251053330004,2190.856919958,2190.858410917,2192.3739428330005,mostlyred,FinalRedContrast,FinalGreenContrast,2192.375362292,2193.407271458,3,050626kl,001,2026-05-06_10h20.34.842,priming,,2026.1.3,60.09747822981398,2026-05-06 10h20.35.192291 -0700,
GR_Congruent_GreenCue_GreenProbe_Bottom,GreenGaborBoth.png,RedGaborBoth.png,GreenGaborDisappearBottom.png,RedGaborBoth.png,Green.mp3,green,bottom,116,36,1,,,,1,36,116,43,2193.423054917,,,,,,,,,,,,,,,,bottom,,,,,,,,2193.409707917,2194.5568131249997,2194.556987042,2199.8067242500006,2199.8167558750006,2201.056573167,2201.0585087920003,2202.306959625,2202.3084034999997,2203.5740620419997,mostlyred,FinalRedContrast,FinalGreenContrast,2203.5754049580005,2204.890794917,4,050626kl,001,2026-05-06_10h20.34.842,priming,,2026.1.3,60.09747822981398,2026-05-06 10h20.35.192291 -0700,
GR_Congruent_RedCue_RedProbe_Bottom,GreenGaborBoth.png,RedGaborBoth.png,GreenGaborBoth.png,RedGaborDisappearBottom.png,Red.mp3,red,bottom,117,37,1,,,,1,37,117,49,2204.9064935829997,,,,,,,,,,,,,,,,bottom,,,,,,,,2204.892956958,2205.97359525,2205.973780875,2211.2233461250003,2211.233423833,2212.4732158330003,2212.4751873750006,2214.0069832920003,2214.008867917,2214.957413208,mostlyred,FinalRedContrast,FinalGreenContrast,2214.958927917,2217.074335,3,050626kl,001,2026-05-06_10h20.34.842,priming,,2026.1.3,60.09747822981398,2026-05-06 10h20.35.192291 -0700,
GR_Congruent_RedCue_RedProbe_Top,GreenGaborBoth.png,RedGaborBoth.png,GreenGaborBoth.png,RedGaborDisappearTop.png,Red.mp3,red,top,118,38,1,,,,1,38,118,48,2217.089803417,,,,,,,,,,,,,,,,top,,,,,,,,2217.074477083,2218.323581583,2218.323746417,2223.5732685,2223.5820962499997,2224.8232842500006,2224.825453917,2225.9909152080004,2225.991387042,2227.1406804580006,evensplit,FinalRedContrast,FinalGreenContrast,2227.1417405830002,2230.2578970830004,2,050626kl,001,2026-05-06_10h20.34.842,priming,,2026.1.3,60.09747822981398,2026-05-06 10h20.35.192291 -0700,
GR_Congruent_RedCue_RedProbe_Bottom,GreenGaborBoth.png,RedGaborBoth.png,GreenGaborBoth.png,RedGaborDisappearBottom.png,Red.mp3,red,bottom,119,39,1,,,,1,39,119,33,2230.2731908749997,,,,,,,,,,,,,,,,bottom,,,,,,,,2230.2581572080003,2231.0902095000006,2231.090377917,2236.3399697500004,2236.3501611670004,2237.590026458,2237.5937688750005,2238.5905411670005,2238.5916825,2239.5575738330003,evensplit,FinalRedContrast,FinalGreenContrast,2239.558962208,2243.5076284580005,3,050626kl,001,2026-05-06_10h20.34.842,priming,,2026.1.3,60.09747822981398,2026-05-06 10h20.35.192291 -0700,
GR_Incongruent_RedCue_GreenProbe_Top,GreenGaborBoth.png,RedGaborBoth.png,GreenGaborDisappearTop.png,RedGaborBoth.png,Red.mp3,red,top,120,40,1,,,,1,40,120,36,2243.5232639580004,,,,,,,,,,,,,,,,top,,,,,,,,2243.5078966670003,2244.207006,2244.207173167,2249.4568296250004,2249.467514042,2250.7067473330003,2250.708565042,2253.0072075000003,2253.0081762080004,2254.407547333,mostlygreen,FinalRedContrast,FinalGreenContrast,2254.4086824580004,2256.2742637080005,3,050626kl,001,2026-05-06_10h20.34.842,priming,,2026.1.3,60.09747822981398,2026-05-06 10h20.35.192291 -0700,
GR_Incongruent_RedCue_GreenProbe_Top,GreenGaborBoth.png,RedGaborBoth.png,GreenGaborDisappearTop.png,RedGaborBoth.png,Red.mp3,red,top,121,41,1,,,,1,41,121,52,2256.289943167,,,,,,,,,,,,,,,,top,,,,,,,,2256.2746312920003,2257.44029525,2257.4404890830006,2262.690058208,2262.7005838750006,2263.9400373330004,2263.9422534580003,2264.559534167,2264.5598162500005,2265.574224458,mostlygreen,FinalRedContrast,FinalGreenContrast,2265.575231583,2266.6241737920004,3,050626kl,001,2026-05-06_10h20.34.842,priming,,2026.1.3,60.09747822981398,2026-05-06 10h20.35.192291 -0700,
GR_Incongruent_GreenCue_RedProbe_Bottom,GreenGaborBoth.png,RedGaborBoth.png,GreenGaborBoth.png,RedGaborDisappearBottom.png,Green.mp3,green,bottom,122,42,1,,,,1,42,122,71,2266.6399038330005,,,,,,,,,,,,,,,,bottom,,,,,,,,2266.628917667,2267.8407723330006,2267.8409675,2273.0900676670003,2273.100173042,2274.340116,2274.341995958,2275.1404595,2275.142037708,2275.8074915419998,evensplit,FinalRedContrast,FinalGreenContrast,2275.808410792,2277.224181,2,050626kl,001,2026-05-06_10h20.34.842,priming,,2026.1.3,60.09747822981398,2026-05-06 10h20.35.192291 -0700,
GR_Incongruent_RedCue_GreenProbe_Bottom,GreenGaborBoth.png,RedGaborBoth.png,GreenGaborDisappearBottom.png,RedGaborBoth.png,Red.mp3,red,bottom,123,43,1,,,,1,43,123,45,2277.2398919580005,,,,,,,,,,,,,,,,bottom,,,,,,,,2277.2283996250003,2278.6571319580003,2278.6573176670004,2283.9069337080005,2283.918036042,2285.1568402079997,2285.1587395419997,2286.64056475,2286.6424155830005,2288.6910175830003,evensplit,FinalRedContrast,FinalGreenContrast,2288.6924275000006,2290.224298042,3,050626kl,001,2026-05-06_10h20.34.842,priming,,2026.1.3,60.09747822981398,2026-05-06 10h20.35.192291 -0700,
GR_Incongruent_GreenCue_RedProbe_Bottom,GreenGaborBoth.png,RedGaborBoth.png,GreenGaborBoth.png,RedGaborDisappearBottom.png,Green.mp3,green,bottom,124,44,1,,,,1,44,124,23,2290.2400370420005,,,,,,,,,,,,,,,,bottom,,,,,,,,2290.226308,2291.873821625,2291.873990458,2297.123520875,2297.132595167,2298.3734717500006,2298.375332833,2300.1406012499997,2300.1415131670005,2302.740965417,mostlygreen,FinalRedContrast,FinalGreenContrast,2302.7424408330003,2303.840983292,3,050626kl,001,2026-05-06_10h20.34.842,priming,,2026.1.3,60.09747822981398,2026-05-06 10h20.35.192291 -0700,
GR_Incongruent_GreenCue_RedProbe_Top,GreenGaborBoth.png,RedGaborBoth.png,GreenGaborBoth.png,RedGaborDisappearTop.png,Green.mp3,green,top,125,45,1,,,,1,45,125,46,2303.8567173750002,,,,,,,,,,,,,,,,top,,,,,,,,2303.841253708,2312.473894292,2312.4741597080006,2317.7235943749997,2317.733920458,2318.973604083,2318.977045833,2319.6909187080005,2319.692365792,2321.574425167,mostlyred,FinalRedContrast,FinalGreenContrast,2321.5753953750004,2322.5245595,2,050626kl,001,2026-05-06_10h20.34.842,priming,,2026.1.3,60.09747822981398,2026-05-06 10h20.35.192291 -0700,
GR_Incongruent_GreenCue_RedProbe_Top,GreenGaborBoth.png,RedGaborBoth.png,GreenGaborBoth.png,RedGaborDisappearTop.png,Green.mp3,green,top,126,46,1,,,,1,46,126,38,2322.5401759580004,,,,,,,,,,,,,,,,top,,,,,,,,2322.5248704170003,2323.707243083,2323.7074127500005,2328.957081375,2328.9661985420003,2330.206911375,2330.2088091250002,2330.877044417,2330.877297667,2332.9243995419997,mostlyred,FinalRedContrast,FinalGreenContrast,2332.925872292,2334.774404667,3,050626kl,001,2026-05-06_10h20.34.842,priming,,2026.1.3,60.09747822981398,2026-05-06 10h20.35.192291 -0700,
GR_Incongruent_GreenCue_RedProbe_Bottom,GreenGaborBoth.png,RedGaborBoth.png,GreenGaborBoth.png,RedGaborDisappearBottom.png,Green.mp3,green,bottom,127,47,1,,,,1,47,127,31,2334.790234292,,,,,,,,,,,,,,,,bottom,,,,,,,,2334.774582542,2337.4239068330003,2337.4240955830005,2342.673685917,2342.68283225,2343.9236446669997,2343.925598458,2344.657450458,2344.6588028749998,2346.7411183750005,mostlyred,FinalRedContrast,FinalGreenContrast,2346.7426558330003,2349.291071667,3,050626kl,001,2026-05-06_10h20.34.842,priming,,2026.1.3,60.09747822981398,2026-05-06 10h20.35.192291 -0700,
GR_Congruent_GreenCue_GreenProbe_Bottom,GreenGaborBoth.png,RedGaborBoth.png,GreenGaborDisappearBottom.png,RedGaborBoth.png,Green.mp3,green,bottom,128,48,1,,,,1,48,128,27,2349.3068540830004,,,,,,,,,,,,,,,,bottom,,,,,,,,2349.291327667,2367.4311155830005,2367.43154275,2372.6737035830006,2372.683623083,2373.923709792,2373.9256662499997,2374.62463025,2374.626224958,2375.77456175,evensplit,FinalRedContrast,FinalGreenContrast,2375.775906708,2376.9414463750004,2,050626kl,001,2026-05-06_10h20.34.842,priming,,2026.1.3,60.09747822981398,2026-05-06 10h20.35.192291 -0700,
GR_Incongruent_RedCue_GreenProbe_Bottom,GreenGaborBoth.png,RedGaborBoth.png,GreenGaborDisappearBottom.png,RedGaborBoth.png,Red.mp3,red,bottom,129,49,1,,,,1,49,129,21,2376.957042417,,,,,,,,,,,,,,,,bottom,,,,,,,,2376.9445665420003,2382.107418958,2382.107588458,2387.3571937500005,2387.3677900830003,2388.607118292,2388.6089712079997,2389.2908577499998,2389.292695625,2391.1580355,mostlygreen,FinalRedContrast,FinalGreenContrast,2391.159012208,2392.8582969169997,3,050626kl,001,2026-05-06_10h20.34.842,priming,,2026.1.3,60.09747822981398,2026-05-06 10h20.35.192291 -0700,
GR_Congruent_GreenCue_GreenProbe_Top,GreenGaborBoth.png,RedGaborBoth.png,GreenGaborDisappearTop.png,RedGaborBoth.png,Green.mp3,green,top,130,50,1,,,,1,50,130,26,2392.8736934170006,,,,,,,,,,,,,,,,top,,,,,,,,2392.8611865830003,2394.1073543750003,2394.1075337080006,2399.3573834579997,2399.3683032920003,2400.607219833,2400.609620042,2402.1743106670006,2402.1757721670006,2403.842100667,evensplit,FinalRedContrast,FinalGreenContrast,2403.842448,2405.3247087080003,3,050626kl,001,2026-05-06_10h20.34.842,priming,,2026.1.3,60.09747822981398,2026-05-06 10h20.35.192291 -0700,
GR_Congruent_RedCue_RedProbe_Bottom,GreenGaborBoth.png,RedGaborBoth.png,GreenGaborBoth.png,RedGaborDisappearBottom.png,Red.mp3,red,bottom,131,51,1,,,,1,51,131,65,2405.340504583,,,,,,,,,,,,,,,,bottom,,,,,,,,2405.3275676670005,2406.274195667,2406.274371958,2411.523919125,2411.533244083,2412.7739210000004,2412.7755346670006,2413.5243387080004,2413.525888083,2416.2418072080004,mostlygreen,FinalRedContrast,FinalGreenContrast,2416.2421088329997,2417.5247063330003,3,050626kl,001,2026-05-06_10h20.34.842,priming,,2026.1.3,60.09747822981398,2026-05-06 10h20.35.192291 -0700,
GR_Congruent_RedCue_RedProbe_Top,GreenGaborBoth.png,RedGaborBoth.png,GreenGaborBoth.png,RedGaborDisappearTop.png,Red.mp3,red,top,132,52,1,,,,1,52,132,56,2417.540471375,,,,,,,,,,,,,,,,top,,,,,,,,2417.524815333,2432.707633208,2432.7078031670003,2437.9573893330003,2437.9659733330004,2439.2073471670005,2439.208935125,2439.8079056250003,2439.8088486250003,2440.79155175,mostlyred,FinalRedContrast,FinalGreenContrast,2440.792146292,2441.8749151670004,3,050626kl,001,2026-05-06_10h20.34.842,priming,,2026.1.3,60.09747822981398,2026-05-06 10h20.35.192291 -0700,
GG_non_riv_catch_RedCue_GreenProbe_Top,GreenGaborBoth.png,Blank.png,GreenGaborDisappearTop.png,Blank.png,Red.mp3,red,top,133,53,1,,,,1,53,133,76,2441.8906386250005,,,,,,,,,,,,,,,,top,,,,,,,,2441.8750668750004,2444.141081958,2444.141247917,2449.3906927499997,2449.3975296250005,2450.640820792,2450.642220667,2451.274482917,2451.275934875,2452.324885583,allgreen,FinalRedContrast,FinalGreenContrast,2452.325898625,2454.208120875,4,050626kl,001,2026-05-06_10h20.34.842,priming,,2026.1.3,60.09747822981398,2026-05-06 10h20.35.192291 -0700,
RR_non_riv_catch_GreenCue_RedProbe_Bottom,Blank.png,RedGaborBoth.png,Blank.png,RedGaborDisappearBottom.png,Green.mp3,green,bottom,134,54,1,,,,1,54,134,75,2454.224023958,,,,,,,,,,,,,,,,bottom,,,,,,,,2454.2100592500005,2455.607674083,2455.6078485000003,2460.8574549170003,2460.864081958,2462.1074718330005,2462.108901542,2462.757707667,2462.759187,2464.1749568750006,allred,FinalRedContrast,FinalGreenContrast,2464.1760512080004,2465.5748243330004,4,050626kl,001,2026-05-06_10h20.34.842,priming,,2026.1.3,60.09747822981398,2026-05-06 10h20.35.192291 -0700,
GR_Congruent_GreenCue_GreenProbe_Bottom,GreenGaborBoth.png,RedGaborBoth.png,GreenGaborDisappearBottom.png,RedGaborBoth.png,Green.mp3,green,bottom,135,55,1,,,,1,55,135,19,2465.5906861670005,,,,,,,,,,,,,,,,bottom,,,,,,,,2465.5749281250005,2467.4577200420003,2467.4578827500004,2472.70727675,2472.714696208,2473.9574662500004,2473.9591069170006,2475.174771417,2475.175752375,2476.908405042,evensplit,FinalRedContrast,FinalGreenContrast,2476.909167708,2477.974986167,3,050626kl,001,2026-05-06_10h20.34.842,priming,,2026.1.3,60.09747822981398,2026-05-06 10h20.35.192291 -0700,
GR_Congruent_GreenCue_GreenProbe_Top,GreenGaborBoth.png,RedGaborBoth.png,GreenGaborDisappearTop.png,RedGaborBoth.png,Green.mp3,green,top,136,56,1,,,,1,56,136,58,2477.990776417,,,,,,,,,,,,,,,,top,,,,,,,,2477.9750887080004,2489.057841083,2489.0580080000004,2494.3075314580005,2494.31508,2495.557529,2495.5594621249998,2497.0249725420003,2497.025616542,2498.874997708,mostlyred,FinalRedContrast,FinalGreenContrast,2498.8760638750005,2500.1583823329997,3,050626kl,001,2026-05-06_10h20.34.842,priming,,2026.1.3,60.09747822981398,2026-05-06 10h20.35.192291 -0700,
GR_Incongruent_GreenCue_RedProbe_Top,GreenGaborBoth.png,RedGaborBoth.png,GreenGaborBoth.png,RedGaborDisappearTop.png,Green.mp3,green,top,137,57,1,,,,1,57,137,14,2500.1741766669998,,,,,,,,,,,,,,,,top,,,,,,,,2500.1584787920006,2501.757758292,2501.7579260830003,2507.0074371670003,2507.0149026250006,2508.2574692499998,2508.259407833,2509.107851958,2509.109686458,2509.758354708,mostlyred,FinalRedContrast,FinalGreenContrast,2509.759601458,2510.6585255000005,3,050626kl,001,2026-05-06_10h20.34.842,priming,,2026.1.3,60.09747822981398,2026-05-06 10h20.35.192291 -0700,
GR_Congruent_GreenCue_GreenProbe_Top,GreenGaborBoth.png,RedGaborBoth.png,GreenGaborDisappearTop.png,RedGaborBoth.png,Green.mp3,green,top,138,58,1,,,,1,58,138,2,2510.6742401670003,,,,,,,,,,,,,,,,bottom,,,,,,,,2510.6586204170003,2511.7912423330004,2511.791407917,2517.040950125,2517.047382917,2518.291001667,2518.2926482919997,2518.7747879170006,2518.775987542,2521.725028833,mostlyred,FinalRedContrast,FinalGreenContrast,2521.726352458,2523.0584660830004,2,050626kl,001,2026-05-06_10h20.34.842,priming,,2026.1.3,60.09747822981398,2026-05-06 10h20.35.192291 -0700,
