label,LstartingStim,RstartingStim,LvisualStim,RvisualStim,audioCue,visualCue,probe_loc,thisN,thisTrialN,thisRepN,staircase.thisTrialN,staircase.stepSize,staircase.intensity,trials.thisRepN,trials.thisTrialN,trials.thisN,trials.thisIndex,thisRow.t,notes,piloting,stim offset,continue_resp.keys,continue_resp.rt,continue_resp.duration,fixation.started,fixation.stopped,greenContrast,redContrast,adjusted_contrast.started,adjusted_contrast.stopped,staircase_response.started,staircase_response.stopped,stair_response,probe_response,staircase.response,prevTrial,isRed,isReversal,cumReversal,contrastArray,contrastAverage,start_trial.started,start_trial.stopped,cue.started,cue.stopped,probe.started,probe.stopped,probe_response.started,probe_response.stopped,subjective_response.started,subjective_response.stopped,subj_response,RedContrast,GreenContrast,vividness_response.started,vividness_response.stopped,vivid_response,participant,session,date,expName,expVersion,psychopyVersion,frameRate,expStart,
,,,,,,,,,,,,,,,,,,,,False,0.353,,,,,,,,,,,,,,,,,,,,,,,,,,,,,,,,,,,,,051226tj,001,2026-05-12_12h13.22.169,priming,,2026.1.3,59.977058654927504,2026-05-12 12h13.22.479909 -0700,
,,,,,,,,,,,,,,,,,,,,,,space,24.81910999899992,None,,,,,,,,,,,,,,,,,,,,,,,,,,,,,,,,,,051226tj,001,2026-05-12_12h13.22.169,priming,,2026.1.3,59.977058654927504,2026-05-12 12h13.22.479909 -0700,
,,,,,,,,,,,0,0.2,0.5,,,,,37.13147087500147,,,,,,,37.11550204100058,38.11476095800026,0.5,0.5,38.12135945800037,39.86475375000009,39.866279583000505,44.06555287500123,allred,red,1,1000,1,0,0,[],0,,,,,,,,,,,,,,,,,051226tj,001,2026-05-12_12h13.22.169,priming,,2026.1.3,59.977058654927504,2026-05-12 12h13.22.479909 -0700,
,,,,,,,,,,,1,0.2,0.3,,,,,44.08154325000032,,,,,,,44.06587704100093,45.06479600000057,0.7,0.3,45.06833995800116,46.814905750001344,46.81663150000168,51.032266541000354,mostlyred,red,1,1,1,0,0,[],0,,,,,,,,,,,,,,,,,051226tj,001,2026-05-12_12h13.22.169,priming,,2026.1.3,59.977058654927504,2026-05-12 12h13.22.479909 -0700,
,,,,,,,,,,,2,0.1,0.09999999999999998,,,,,51.04814454100051,,,,,,,51.03257920800024,52.03152095800033,0.9,0.09999999999999998,52.03509458300141,53.78154325000105,53.78297041600126,55.99927995800135,allgreen,green,0,1,0,1,1,[],0,,,,,,,,,,,,,,,,,051226tj,001,2026-05-12_12h13.22.169,priming,,2026.1.3,59.977058654927504,2026-05-12 12h13.22.479909 -0700,
,,,,,,,,,,,3,0.1,0.19999999999999998,,,,,56.014811291001024,,,,,,,55.99953091600037,56.99819750000097,0.8,0.19999999999999998,57.00170316600088,58.74814933300149,58.74990145800075,61.415592875000584,mostlygreen,green,0,0,0,0,1,[],0,,,,,,,,,,,,,,,,,051226tj,001,2026-05-12_12h13.22.169,priming,,2026.1.3,59.977058654927504,2026-05-12 12h13.22.479909 -0700,
,,,,,,,,,,,4,0.1,0.3,,,,,61.43149233300028,,,,,,,61.41583716600144,62.41483941600018,0.7,0.3,62.41838000000098,64.16492566600027,64.16663325000081,65.71562441600145,mostlyred,red,1,0,1,1,2,[],0,,,,,,,,,,,,,,,,,051226tj,001,2026-05-12_12h13.22.169,priming,,2026.1.3,59.977058654927504,2026-05-12 12h13.22.479909 -0700,
,,,,,,,,,,,5,0.05,0.19999999999999998,,,,,65.7315410830015,,,,,,,65.7158719580002,66.71477950000008,0.8,0.19999999999999998,66.71833358300137,68.46491800000149,68.46670087500024,69.48224120800114,mostlygreen,green,0,1,0,1,3,[],0,,,,,,,,,,,,,,,,,051226tj,001,2026-05-12_12h13.22.169,priming,,2026.1.3,59.977058654927504,2026-05-12 12h13.22.479909 -0700,
,,,,,,,,,,,6,0.05,0.25,,,,,69.498134458001,,,,,,,69.48248450000028,70.48161579100088,0.75,0.25,70.48513970800013,72.23159070800102,72.23299750000115,74.51572762500109,mostlyred,red,1,0,1,1,4,[],0,,,,,,,,,,,,,,,,,051226tj,001,2026-05-12_12h13.22.169,priming,,2026.1.3,59.977058654927504,2026-05-12 12h13.22.479909 -0700,
,,,,,,,,,,,7,0.025,0.2,,,,,74.53161208300116,,,,,,,74.51598229100091,75.51501283300058,0.8,0.2,75.51856187500016,77.26500275000035,77.26690770800087,79.66578329100048,mostlygreen,green,0,1,0,1,5,[],0,,,,,,,,,,,,,,,,,051226tj,001,2026-05-12_12h13.22.169,priming,,2026.1.3,59.977058654927504,2026-05-12 12h13.22.479909 -0700,
,,,,,,,,,,,8,0.025,0.225,,,,,79.68159237500004,,,,,,,79.66603608300102,80.66494875000171,0.775,0.225,80.6684439160017,82.4150373750017,82.41642183300064,82.88243204100036,mostlygreen,green,0,0,0,0,5,[],0,,,,,,,,,,,,,,,,,051226tj,001,2026-05-12_12h13.22.169,priming,,2026.1.3,59.977058654927504,2026-05-12 12h13.22.479909 -0700,
,,,,,,,,,,,9,0.025,0.25,,,,,82.89823491600146,,,,,,,82.88268166600028,83.88167354100005,0.75,0.25,83.88516658300068,85.63173995800025,85.63311266600067,86.49900912500016,mostlyred,red,1,0,1,1,6,[0.25],0.25,,,,,,,,,,,,,,,,,051226tj,001,2026-05-12_12h13.22.169,priming,,2026.1.3,59.977058654927504,2026-05-12 12h13.22.479909 -0700,
,,,,,,,,,,,10,0.025,0.225,,,,,86.51496833300007,,,,,,,86.49925766600063,87.49831662500037,0.775,0.225,87.50176900000042,89.2483347080015,89.25007116600136,90.56565120800042,mostlygreen,green,0,1,0,1,7,"[0.25, 0.225]",0.2375,,,,,,,,,,,,,,,,,051226tj,001,2026-05-12_12h13.22.169,priming,,2026.1.3,59.977058654927504,2026-05-12 12h13.22.479909 -0700,
,,,,,,,,,,,11,0.025,0.25,,,,,90.58159158300077,,,,,,,90.5658992080007,91.56508016600128,0.75,0.25,91.56852729100137,93.31503558300028,93.31681075000051,93.89914533299998,mostlygreen,green,0,0,0,0,7,"[0.25, 0.225]",0.2375,,,,,,,,,,,,,,,,,051226tj,001,2026-05-12_12h13.22.169,priming,,2026.1.3,59.977058654927504,2026-05-12 12h13.22.479909 -0700,
,,,,,,,,,,,12,0.025,0.275,,,,,93.91497729100047,,,,,,,93.89940237500014,94.89828716600096,0.725,0.275,94.90173375000086,96.6483771660005,96.64995354100029,98.48234383300041,mostlygreen,green,0,0,0,0,7,"[0.25, 0.225]",0.2375,,,,,,,,,,,,,,,,,051226tj,001,2026-05-12_12h13.22.169,priming,,2026.1.3,59.977058654927504,2026-05-12 12h13.22.479909 -0700,
,,,,,,,,,,,13,0.025,0.30000000000000004,,,,,98.49820833300146,,,,,,,98.48259262500142,99.48173275000045,0.7,0.30000000000000004,99.48525074999998,101.2317561660002,101.23315712500153,102.49905733300147,mostlyred,red,1,0,1,1,8,"[0.25, 0.225, 0.30000000000000004]",0.25833333333333336,,,,,,,,,,,,,,,,,051226tj,001,2026-05-12_12h13.22.169,priming,,2026.1.3,59.977058654927504,2026-05-12 12h13.22.479909 -0700,
,,,,,,,,,,,14,0.025,0.275,,,,,102.5149470410015,,,,,,,102.49930837500142,103.49848616600138,0.725,0.275,103.50200491600117,105.24839745800091,105.25036558300053,106.84921954100173,mostlyred,red,1,1,1,0,8,"[0.25, 0.225, 0.30000000000000004]",0.25833333333333336,,,,,,,,,,,,,,,,,051226tj,001,2026-05-12_12h13.22.169,priming,,2026.1.3,59.977058654927504,2026-05-12 12h13.22.479909 -0700,
,,,,,,,,,,,15,0.025,0.25,,,,,106.8651312080001,,,,,,,106.84946962499998,107.84850720800023,0.75,0.25,107.85202225000103,109.59843479100164,109.60043512500124,110.81593791600062,mostlygreen,green,0,1,0,1,9,"[0.25, 0.225, 0.30000000000000004, 0.25]",0.25625,,,,,,,,,,,,,,,,,051226tj,001,2026-05-12_12h13.22.169,priming,,2026.1.3,59.977058654927504,2026-05-12 12h13.22.479909 -0700,
,,,,,,,,,,,16,0.025,0.275,,,,,110.8317231660003,,,,,,,110.81620666600065,111.81516087500131,0.725,0.275,111.81862520800132,113.56516675000057,113.56698916599998,114.34921900000154,allgreen,green,0,0,0,0,9,"[0.25, 0.225, 0.30000000000000004, 0.25]",0.25625,,,,,,,,,,,,,,,,,051226tj,001,2026-05-12_12h13.22.169,priming,,2026.1.3,59.977058654927504,2026-05-12 12h13.22.479909 -0700,
,,,,,,,,,,,17,0.025,0.30000000000000004,,,,,114.36501124999995,,,,,,,114.34950670800026,115.34847604100105,0.7,0.30000000000000004,115.35189141600131,117.0984232080009,117.10012300000017,118.43250812500082,mostlygreen,green,0,0,0,0,9,"[0.25, 0.225, 0.30000000000000004, 0.25]",0.25625,,,,,,,,,,,,,,,,,051226tj,001,2026-05-12_12h13.22.169,priming,,2026.1.3,59.977058654927504,2026-05-12 12h13.22.479909 -0700,
,,,,,,,,,,,18,0.025,0.32500000000000007,,,,,118.44835179100119,,,,,,,118.43276225000045,119.43185541599996,0.6749999999999999,0.32500000000000007,119.43537825000021,121.18181779100087,121.18344750000142,122.71580758300115,mostlyred,red,1,0,1,1,10,"[0.25, 0.225, 0.30000000000000004, 0.25, 0.32500000000000007]",0.27,,,,,,,,,,,,,,,,,051226tj,001,2026-05-12_12h13.22.169,priming,,2026.1.3,59.977058654927504,2026-05-12 12h13.22.479909 -0700,
,,,,,,,,,,,19,0.025,0.30000000000000004,,,,,122.73172300000078,,,,,,,122.7160597080001,123.71515833300145,0.7,0.30000000000000004,123.7185354580015,125.46507112500149,125.46661679099998,127.76588100000117,mostlyred,red,1,1,1,0,10,"[0.25, 0.225, 0.30000000000000004, 0.25, 0.32500000000000007]",0.27,,,,,,,,,,,,,,,,,051226tj,001,2026-05-12_12h13.22.169,priming,,2026.1.3,59.977058654927504,2026-05-12 12h13.22.479909 -0700,
,,,,,,,,,,,20,0.025,0.275,,,,,127.78178637500059,,,,,,,127.76612950000163,128.76510725000117,0.725,0.275,128.76858129100037,130.51515166600075,130.5170816660011,132.18284920800033,mostlyred,red,1,1,1,0,10,"[0.25, 0.225, 0.30000000000000004, 0.25, 0.32500000000000007]",0.27,,,,,,,,,,,,,,,,,051226tj,001,2026-05-12_12h13.22.169,priming,,2026.1.3,59.977058654927504,2026-05-12 12h13.22.479909 -0700,
,,,,,,,,,,,21,0.025,0.25,,,,,132.19850891600072,,,,,,,132.18311308300144,133.18196337500012,0.75,0.25,133.185432708,134.93197475000125,134.93322345800152,135.4826406250013,mostlygreen,green,0,1,0,1,11,"[0.25, 0.225, 0.30000000000000004, 0.25, 0.32500000000000007, 0.25]",0.26666666666666666,,,,,,,,,,,,,,,,,051226tj,001,2026-05-12_12h13.22.169,priming,,2026.1.3,59.977058654927504,2026-05-12 12h13.22.479909 -0700,
,,,,,,,,,,,22,0.025,0.275,,,,,135.49852270800147,,,,,,,135.48289054100132,136.48196808300054,0.725,0.275,136.48546933300167,138.23200079100025,138.23339770800158,140.56600716600042,mostlyred,red,1,0,1,1,12,"[0.25, 0.225, 0.30000000000000004, 0.25, 0.32500000000000007, 0.25, 0.275]",0.26785714285714285,,,,,,,,,,,,,,,,,051226tj,001,2026-05-12_12h13.22.169,priming,,2026.1.3,59.977058654927504,2026-05-12 12h13.22.479909 -0700,
,,,,,,,,,,,23,0.025,0.25,,,,,140.58190145800108,,,,,,,140.56625954100127,141.56533970800047,0.75,0.25,141.5688493330017,143.3153409580009,143.31662329100072,144.79928529100107,mostlyred,red,1,1,1,0,12,"[0.25, 0.225, 0.30000000000000004, 0.25, 0.32500000000000007, 0.25, 0.275]",0.26785714285714285,,,,,,,,,,,,,,,,,051226tj,001,2026-05-12_12h13.22.169,priming,,2026.1.3,59.977058654927504,2026-05-12 12h13.22.479909 -0700,
,,,,,,,,,,,24,0.025,0.225,,,,,144.81520170800104,,,,,,,144.79953345800095,145.79860020800152,0.775,0.225,145.8020826660013,147.54852850000134,147.55018587500126,149.39925391600082,mostlygreen,green,0,1,0,1,13,"[0.25, 0.225, 0.30000000000000004, 0.25, 0.32500000000000007, 0.25, 0.275, 0.225]",0.2625,,,,,,,,,,,,,,,,,051226tj,001,2026-05-12_12h13.22.169,priming,,2026.1.3,59.977058654927504,2026-05-12 12h13.22.479909 -0700,
,,,,,,,,,,,25,0.025,0.25,,,,,149.41522500000065,,,,,,,149.39952741600064,150.39852995800175,0.75,0.25,150.4019425410006,152.14867279100145,152.15035412500038,153.86599537500115,mostlyred,red,1,0,1,1,14,"[0.25, 0.225, 0.30000000000000004, 0.25, 0.32500000000000007, 0.25, 0.275, 0.225, 0.25]",0.2611111111111111,,,,,,,,,,,,,,,,,051226tj,001,2026-05-12_12h13.22.169,priming,,2026.1.3,59.977058654927504,2026-05-12 12h13.22.479909 -0700,
,,,,,,,,,,,26,0.025,0.225,,,,,153.8819684580012,,,,,,,153.86628466600087,154.86518745800095,0.775,0.225,154.86863062500015,156.61520579100034,156.6170168330009,159.36598770800083,mostlygreen,green,0,1,0,1,15,"[0.25, 0.225, 0.30000000000000004, 0.25, 0.32500000000000007, 0.25, 0.275, 0.225, 0.25, 0.225]",0.2575,,,,,,,,,,,,,,,,,051226tj,001,2026-05-12_12h13.22.169,priming,,2026.1.3,59.977058654927504,2026-05-12 12h13.22.479909 -0700,
,,,,,,,,,,,27,0.025,0.25,,,,,159.381891291001,,,,,,,159.36624437499995,160.3653497080013,0.75,0.25,160.36879704100102,162.1153155000011,162.1173679580006,162.61600400000134,mostlygreen,green,0,0,0,0,15,"[0.25, 0.225, 0.30000000000000004, 0.25, 0.32500000000000007, 0.25, 0.275, 0.225, 0.25, 0.225]",0.2575,,,,,,,,,,,,,,,,,051226tj,001,2026-05-12_12h13.22.169,priming,,2026.1.3,59.977058654927504,2026-05-12 12h13.22.479909 -0700,
,,,,,,,,,,,28,0.025,0.275,,,,,162.63180058300168,,,,,,,162.6162489160015,163.61531200000172,0.725,0.275,163.61872783300169,165.3654486250016,165.36754729100176,166.4493888750003,mostlygreen,green,0,0,0,0,15,"[0.25, 0.225, 0.30000000000000004, 0.25, 0.32500000000000007, 0.25, 0.275, 0.225, 0.25, 0.225]",0.2575,,,,,,,,,,,,,,,,,051226tj,001,2026-05-12_12h13.22.169,priming,,2026.1.3,59.977058654927504,2026-05-12 12h13.22.479909 -0700,
,,,,,,,,,,,29,0.025,0.30000000000000004,,,,,166.46536829100114,,,,,,,166.4496368330001,167.44874425000125,0.7,0.30000000000000004,167.4522046660004,169.19876441600172,169.20037520799997,170.63273608300005,mostlyred,red,1,0,1,1,16,"[0.25, 0.225, 0.30000000000000004, 0.25, 0.32500000000000007, 0.25, 0.275, 0.225, 0.25, 0.225, 0.30000000000000004]",0.26136363636363635,,,,,,,,,,,,,,,,,051226tj,001,2026-05-12_12h13.22.169,priming,,2026.1.3,59.977058654927504,2026-05-12 12h13.22.479909 -0700,
,,,,,,,,,,,30,0.025,0.275,,,,,170.64862837500004,,,,,,,170.63298966600087,171.63207537500057,0.725,0.275,171.6355104580016,173.38227854100114,173.38335329100119,175.08282462500028,mostlygreen,green,0,1,0,1,17,"[0.25, 0.225, 0.30000000000000004, 0.25, 0.32500000000000007, 0.25, 0.275, 0.225, 0.25, 0.225, 0.30000000000000004, 0.275]",0.2625,,,,,,,,,,,,,,,,,051226tj,001,2026-05-12_12h13.22.169,priming,,2026.1.3,59.977058654927504,2026-05-12 12h13.22.479909 -0700,
,,,,,,,,,,,31,0.025,0.30000000000000004,,,,,175.09867937500167,,,,,,,175.08315225000115,176.08207533300083,0.7,0.30000000000000004,176.085672833,177.83207070800017,177.83336179100115,182.71600437500092,mostlygreen,green,0,0,0,0,17,"[0.25, 0.225, 0.30000000000000004, 0.25, 0.32500000000000007, 0.25, 0.275, 0.225, 0.25, 0.225, 0.30000000000000004, 0.275]",0.2625,,,,,,,,,,,,,,,,,051226tj,001,2026-05-12_12h13.22.169,priming,,2026.1.3,59.977058654927504,2026-05-12 12h13.22.479909 -0700,
,,,,,,,,,,,32,0.025,0.32500000000000007,,,,,182.7320135830014,,,,,,,182.71625666600085,183.71547604100124,0.6749999999999999,0.32500000000000007,183.71887658300147,185.465434791,185.46698570800072,187.61608016600076,mostlyred,red,1,0,1,1,18,"[0.25, 0.225, 0.30000000000000004, 0.25, 0.32500000000000007, 0.25, 0.275, 0.225, 0.25, 0.225, 0.30000000000000004, 0.275, 0.32500000000000007]",0.2673076923076923,,,,,,,,,,,,,,,,,051226tj,001,2026-05-12_12h13.22.169,priming,,2026.1.3,59.977058654927504,2026-05-12 12h13.22.479909 -0700,
,,,,,,,,,,,33,0.025,0.30000000000000004,,,,,187.63195212500068,,,,,,,187.61633154100127,188.6154284160002,0.7,0.30000000000000004,188.61896395800068,190.36547454100037,190.36693662500147,192.61609758300074,mostlygreen,green,0,1,0,1,19,"[0.25, 0.225, 0.30000000000000004, 0.25, 0.32500000000000007, 0.25, 0.275, 0.225, 0.25, 0.225, 0.30000000000000004, 0.275, 0.32500000000000007, 0.30000000000000004]",0.2696428571428572,,,,,,,,,,,,,,,,,051226tj,001,2026-05-12_12h13.22.169,priming,,2026.1.3,59.977058654927504,2026-05-12 12h13.22.479909 -0700,
,,,,,,,,,,,34,0.025,0.32500000000000007,,,,,192.63202575000105,,,,,,,192.61635062500136,193.61544454100112,0.6749999999999999,0.32500000000000007,193.61891270800152,195.36550945800082,195.36745737500132,199.39962616600133,mostlygreen,green,0,0,0,0,19,"[0.25, 0.225, 0.30000000000000004, 0.25, 0.32500000000000007, 0.25, 0.275, 0.225, 0.25, 0.225, 0.30000000000000004, 0.275, 0.32500000000000007, 0.30000000000000004]",0.2696428571428572,,,,,,,,,,,,,,,,,051226tj,001,2026-05-12_12h13.22.169,priming,,2026.1.3,59.977058654927504,2026-05-12 12h13.22.479909 -0700,
,,,,,,,,,,,35,0.025,0.3500000000000001,,,,,199.41547045800144,,,,,,,199.3998945000003,200.3988427910008,0.6499999999999999,0.3500000000000001,200.40236262500002,202.14883054100028,202.15084750000096,203.5996278750008,mostlyred,red,1,0,1,1,20,"[0.25, 0.225, 0.30000000000000004, 0.25, 0.32500000000000007, 0.25, 0.275, 0.225, 0.25, 0.225, 0.30000000000000004, 0.275, 0.32500000000000007, 0.30000000000000004, 0.3500000000000001]",0.275,,,,,,,,,,,,,,,,,051226tj,001,2026-05-12_12h13.22.169,priming,,2026.1.3,59.977058654927504,2026-05-12 12h13.22.479909 -0700,
,,,,,,,,,,,36,0.025,0.32500000000000007,,,,,203.61546675000136,,,,,,,203.59989537500041,204.5989182500016,0.6749999999999999,0.32500000000000007,204.60242025000116,206.34878254100113,206.35094033300084,208.1995755830012,mostlyred,red,1,1,1,0,20,"[0.25, 0.225, 0.30000000000000004, 0.25, 0.32500000000000007, 0.25, 0.275, 0.225, 0.25, 0.225, 0.30000000000000004, 0.275, 0.32500000000000007, 0.30000000000000004, 0.3500000000000001]",0.275,,,,,,,,,,,,,,,,,051226tj,001,2026-05-12_12h13.22.169,priming,,2026.1.3,59.977058654927504,2026-05-12 12h13.22.479909 -0700,
,,,,,,,,,,,37,0.025,0.30000000000000004,,,,,208.21546954100086,,,,,,,208.19982866600003,209.19881383300162,0.7,0.30000000000000004,209.20230666600037,210.9488987500008,210.95025358300154,212.0995784580009,mostlyred,red,1,1,1,0,20,"[0.25, 0.225, 0.30000000000000004, 0.25, 0.32500000000000007, 0.25, 0.275, 0.225, 0.25, 0.225, 0.30000000000000004, 0.275, 0.32500000000000007, 0.30000000000000004, 0.3500000000000001]",0.275,,,,,,,,,,,,,,,,,051226tj,001,2026-05-12_12h13.22.169,priming,,2026.1.3,59.977058654927504,2026-05-12 12h13.22.479909 -0700,
,,,,,,,,,,,38,0.025,0.275,,,,,212.11538308300078,,,,,,,212.0998305410012,213.09878950000166,0.725,0.275,213.1021795000015,214.84905145800076,214.85040820800168,216.382922625,mostlygreen,green,0,1,0,1,21,"[0.225, 0.30000000000000004, 0.25, 0.32500000000000007, 0.25, 0.275, 0.225, 0.25, 0.225, 0.30000000000000004, 0.275, 0.32500000000000007, 0.30000000000000004, 0.3500000000000001, 0.275]",0.27666666666666667,,,,,,,,,,,,,,,,,051226tj,001,2026-05-12_12h13.22.169,priming,,2026.1.3,59.977058654927504,2026-05-12 12h13.22.479909 -0700,
,,,,,,,,,,,39,0.025,0.30000000000000004,,,,,216.39875458300048,,,,,,,216.38317700000152,217.38246895800148,0.7,0.30000000000000004,217.3860708330012,219.13221025000166,219.1339106660016,220.7494783330003,mostlygreen,green,0,0,0,0,21,"[0.225, 0.30000000000000004, 0.25, 0.32500000000000007, 0.25, 0.275, 0.225, 0.25, 0.225, 0.30000000000000004, 0.275, 0.32500000000000007, 0.30000000000000004, 0.3500000000000001, 0.275]",0.27666666666666667,,,,,,,,,,,,,,,,,051226tj,001,2026-05-12_12h13.22.169,priming,,2026.1.3,59.977058654927504,2026-05-12 12h13.22.479909 -0700,
,,,,,,,,,,,,,,,,,,,,,,space,52.32599858299909,None,,,,,,,,,,,,,,,,,,,,,,,,,,,,,,,,,,051226tj,001,2026-05-12_12h13.22.169,priming,,2026.1.3,59.977058654927504,2026-05-12 12h13.22.479909 -0700,
GR_Congruent_RedCue_RedProbe_Bottom,GreenGaborBoth.png,RedGaborBoth.png,GreenGaborBoth.png,RedGaborDisappearBottom.png,Red.mp3,red,bottom,0,0,0,,,,0,0,0,25,273.1487733330014,,,,,,,,,,,,,,,,bottom,,,,,,,,273.1407725830013,275.6993792500016,275.6995437500009,280.9492293330004,280.9582902910006,282.1991710410002,282.2005525830009,284.53285600000163,284.53454670800056,289.70000666600026,mostlyred,FinalRedContrast,FinalGreenContrast,289.70065950000026,292.6168249580005,3,051226tj,001,2026-05-12_12h13.22.169,priming,,2026.1.3,59.977058654927504,2026-05-12 12h13.22.479909 -0700,
GR_Congruent_GreenCue_GreenProbe_Top,GreenGaborBoth.png,RedGaborBoth.png,GreenGaborDisappearTop.png,RedGaborBoth.png,Green.mp3,green,top,1,1,0,,,,0,1,1,42,292.6325179580017,,,,,,,,,,,,,,,,bottom,,,,,,,,292.619221541001,345.39966645800087,345.3998340830003,350.6493096250015,350.65773725000145,351.89938775000155,351.90178158300114,354.2164992500002,354.2180975830015,357.20044629100084,mostlygreen,FinalRedContrast,FinalGreenContrast,357.20076966600027,360.75080620800145,2,051226tj,001,2026-05-12_12h13.22.169,priming,,2026.1.3,59.977058654927504,2026-05-12 12h13.22.479909 -0700,
GR_Incongruent_RedCue_GreenProbe_Top,GreenGaborBoth.png,RedGaborBoth.png,GreenGaborDisappearTop.png,RedGaborBoth.png,Red.mp3,red,top,2,2,0,,,,0,2,2,36,360.76607008300016,,,,,,,,,,,,,,,,bottom,,,,,,,,360.7525516660007,362.2498471660001,362.2500147080009,367.49943475000146,367.5057868750009,368.74948225000117,368.7508369160005,372.69984400000067,372.70152795800095,374.60038587500094,mostlyred,FinalRedContrast,FinalGreenContrast,374.6007750830013,376.56737625000096,4,051226tj,001,2026-05-12_12h13.22.169,priming,,2026.1.3,59.977058654927504,2026-05-12 12h13.22.479909 -0700,
GR_Congruent_GreenCue_GreenProbe_Bottom,GreenGaborBoth.png,RedGaborBoth.png,GreenGaborDisappearBottom.png,RedGaborBoth.png,Green.mp3,green,bottom,3,3,0,,,,0,3,3,67,376.58282087500083,,,,,,,,,,,,,,,,bottom,,,,,,,,376.569180333001,381.8498934160016,381.85006141600024,387.0994290000017,387.1074774160006,388.3495369580014,388.35089495800094,390.1334444160002,390.13482100000147,394.13386541600084,mostlygreen,FinalRedContrast,FinalGreenContrast,394.1345434160012,395.6338267500014,3,051226tj,001,2026-05-12_12h13.22.169,priming,,2026.1.3,59.977058654927504,2026-05-12 12h13.22.479909 -0700,
GR_Incongruent_GreenCue_RedProbe_Top,GreenGaborBoth.png,RedGaborBoth.png,GreenGaborBoth.png,RedGaborDisappearTop.png,Green.mp3,green,top,4,4,0,,,,0,4,4,70,395.6495019160011,,,,,,,,,,,,,,,,top,,,,,,,,395.63392520800153,396.46665287500036,396.46681708300093,401.71636195800056,401.7242016660002,402.96632483300164,402.96812441600014,405.5833951660006,405.58422000000064,407.43391925000105,mostlyred,FinalRedContrast,FinalGreenContrast,407.4352680000011,409.6838289160005,3,051226tj,001,2026-05-12_12h13.22.169,priming,,2026.1.3,59.977058654927504,2026-05-12 12h13.22.479909 -0700,
GR_Congruent_RedCue_RedProbe_Top,GreenGaborBoth.png,RedGaborBoth.png,GreenGaborBoth.png,RedGaborDisappearTop.png,Red.mp3,red,top,5,5,0,,,,0,5,5,0,409.69960604100015,,,,,,,,,,,,,,,,bottom,,,,,,,,409.68554037500144,410.39993787500134,410.40010158300174,415.6495646660005,415.6559851660004,416.89958370800014,416.90123166600097,419.0000207910016,419.0012770830017,420.3003994160008,evensplit,FinalRedContrast,FinalGreenContrast,420.301688208001,421.7837520410012,3,051226tj,001,2026-05-12_12h13.22.169,priming,,2026.1.3,59.977058654927504,2026-05-12 12h13.22.479909 -0700,
GR_Incongruent_RedCue_GreenProbe_Bottom,GreenGaborBoth.png,RedGaborBoth.png,GreenGaborDisappearBottom.png,RedGaborBoth.png,Red.mp3,red,bottom,6,6,0,,,,0,6,6,21,421.79958166600045,,,,,,,,,,,,,,,,bottom,,,,,,,,421.78384908299995,423.43319416600025,423.4333593750016,428.68310033300077,428.68952850000096,429.93312570800117,429.93441412500033,436.58354970800065,436.5844260410013,440.66724245800106,evensplit,FinalRedContrast,FinalGreenContrast,440.66847370800133,442.3506457500007,3,051226tj,001,2026-05-12_12h13.22.169,priming,,2026.1.3,59.977058654927504,2026-05-12 12h13.22.479909 -0700,
GR_Incongruent_RedCue_GreenProbe_Top,GreenGaborBoth.png,RedGaborBoth.png,GreenGaborDisappearTop.png,RedGaborBoth.png,Red.mp3,red,top,7,7,0,,,,0,7,7,52,442.366404583001,,,,,,,,,,,,,,,,top,,,,,,,,442.35074175000045,442.83338258300137,442.83355445800044,448.08304558300006,448.0893820000001,449.3332216660001,449.33465766600057,451.4002179580002,451.4020156250008,453.23404529100117,evensplit,FinalRedContrast,FinalGreenContrast,453.23468104100175,454.86735237500034,3,051226tj,001,2026-05-12_12h13.22.169,priming,,2026.1.3,59.977058654927504,2026-05-12 12h13.22.479909 -0700,
GR_Incongruent_RedCue_GreenProbe_Top,GreenGaborBoth.png,RedGaborBoth.png,GreenGaborDisappearTop.png,RedGaborBoth.png,Red.mp3,red,top,8,8,0,,,,0,8,8,28,454.88307825000084,,,,,,,,,,,,,,,,top,,,,,,,,454.8674495410014,455.85004675000164,455.85021391600094,461.0998692910016,461.10623220800153,462.34993425000175,462.35162308300096,464.03370433300006,464.0351560830004,466.78404266600046,allgreen,FinalRedContrast,FinalGreenContrast,466.78518829099994,469.68410075000065,4,051226tj,001,2026-05-12_12h13.22.169,priming,,2026.1.3,59.977058654927504,2026-05-12 12h13.22.479909 -0700,
GR_Congruent_GreenCue_GreenProbe_Bottom,GreenGaborBoth.png,RedGaborBoth.png,GreenGaborDisappearBottom.png,RedGaborBoth.png,Green.mp3,green,bottom,9,9,0,,,,0,9,9,3,469.69994900000165,,,,,,,,,,,,,,,,bottom,,,,,,,,469.6861280830017,470.40020841600017,470.400378833001,475.6500154160003,475.6563700000006,476.89996633300143,476.9013057500015,478.4169825830013,478.4179006660015,480.5007607080006,mostlygreen,FinalRedContrast,FinalGreenContrast,480.5019235,482.16737487499995,3,051226tj,001,2026-05-12_12h13.22.169,priming,,2026.1.3,59.977058654927504,2026-05-12 12h13.22.479909 -0700,
GR_Incongruent_GreenCue_RedProbe_Bottom,GreenGaborBoth.png,RedGaborBoth.png,GreenGaborBoth.png,RedGaborDisappearBottom.png,Green.mp3,green,bottom,10,10,0,,,,0,10,10,31,482.18315691600037,,,,,,,,,,,,,,,,bottom,,,,,,,,482.1674726250003,482.73383750000175,482.7340344160002,487.9832188750006,487.99078920800093,489.23326325000016,489.23498529100107,491.88380037500065,491.8855601250016,494.05079758300053,mostlygreen,FinalRedContrast,FinalGreenContrast,494.05209370800003,495.4675522080015,3,051226tj,001,2026-05-12_12h13.22.169,priming,,2026.1.3,59.977058654927504,2026-05-12 12h13.22.479909 -0700,
GR_Incongruent_RedCue_GreenProbe_Bottom,GreenGaborBoth.png,RedGaborBoth.png,GreenGaborDisappearBottom.png,RedGaborBoth.png,Red.mp3,red,bottom,11,11,0,,,,0,11,11,29,495.4833388750012,,,,,,,,,,,,,,,,bottom,,,,,,,,495.46915525000077,500.91702308300046,500.9171884160005,506.1666887500014,506.1730496660002,507.4167473330017,507.41820237499996,508.1838041660012,508.18493045800096,510.2675553330009,evensplit,FinalRedContrast,FinalGreenContrast,510.2690737080011,514.4507992500003,3,051226tj,001,2026-05-12_12h13.22.169,priming,,2026.1.3,59.977058654927504,2026-05-12 12h13.22.479909 -0700,
GR_Congruent_GreenCue_GreenProbe_Top,GreenGaborBoth.png,RedGaborBoth.png,GreenGaborDisappearTop.png,RedGaborBoth.png,Green.mp3,green,top,12,12,0,,,,0,12,12,50,514.4667127080011,,,,,,,,,,,,,,,,top,,,,,,,,514.4526811250016,514.8837975000006,514.8839627500001,520.1334013750002,520.1398662910015,521.383443875,521.3850230830012,524.0837638330013,524.0855812910013,525.5843675410015,mostlygreen,FinalRedContrast,FinalGreenContrast,525.5850905000007,527.8676539160006,3,051226tj,001,2026-05-12_12h13.22.169,priming,,2026.1.3,59.977058654927504,2026-05-12 12h13.22.479909 -0700,
GR_Congruent_GreenCue_GreenProbe_Top,GreenGaborBoth.png,RedGaborBoth.png,GreenGaborDisappearTop.png,RedGaborBoth.png,Green.mp3,green,top,13,13,0,,,,0,13,13,18,527.8834610410013,,,,,,,,,,,,,,,,top,,,,,,,,527.8677523750011,528.7171302080005,528.717297833,533.9668852500017,533.9732619160004,535.2168360000014,535.218114583,536.784042958001,536.7846947500002,538.0009937910017,evensplit,FinalRedContrast,FinalGreenContrast,538.0018811660011,540.2342710830017,3,051226tj,001,2026-05-12_12h13.22.169,priming,,2026.1.3,59.977058654927504,2026-05-12 12h13.22.479909 -0700,
GR_Congruent_GreenCue_GreenProbe_Bottom,GreenGaborBoth.png,RedGaborBoth.png,GreenGaborDisappearBottom.png,RedGaborBoth.png,Green.mp3,green,bottom,14,14,0,,,,0,14,14,19,540.2499833330003,,,,,,,,,,,,,,,,bottom,,,,,,,,540.2343661250015,541.0337707080016,541.0339353750005,546.2834579580012,546.2898288330016,547.5335997080001,547.534877166001,548.6672803330002,548.6690485830004,550.8010301660015,mostlygreen,FinalRedContrast,FinalGreenContrast,550.8014883750002,553.5677757910016,4,051226tj,001,2026-05-12_12h13.22.169,priming,,2026.1.3,59.977058654927504,2026-05-12 12h13.22.479909 -0700,
GR_Incongruent_RedCue_GreenProbe_Top,GreenGaborBoth.png,RedGaborBoth.png,GreenGaborDisappearTop.png,RedGaborBoth.png,Red.mp3,red,top,15,15,0,,,,0,15,15,44,553.5833758750014,,,,,,,,,,,,,,,,top,,,,,,,,553.5694427910003,554.4673023750001,554.4674735830013,559.7169886250012,559.7235660410006,560.9669985830005,560.9682478330014,562.050710208001,562.0522057080016,565.1845041660017,evensplit,FinalRedContrast,FinalGreenContrast,565.1854401660003,566.9678595410005,3,051226tj,001,2026-05-12_12h13.22.169,priming,,2026.1.3,59.977058654927504,2026-05-12 12h13.22.479909 -0700,
RR_non_riv_catch_GreenCue_RedProbe_Top,Blank.png,RedGaborBoth.png,Blank.png,RedGaborDisappearTop.png,Green.mp3,green,top,16,16,0,,,,0,16,16,74,566.983634958,,,,,,,,,,,,,,,,top,,,,,,,,566.9696930830014,567.483993541,567.4841605830006,572.7335077910011,572.741346666,573.9837520830006,573.9853155410001,574.400769291,574.4022268750014,576.4011424580003,allred,FinalRedContrast,FinalGreenContrast,576.4017619580009,578.9344472500015,3,051226tj,001,2026-05-12_12h13.22.169,priming,,2026.1.3,59.977058654927504,2026-05-12 12h13.22.479909 -0700,
GR_Congruent_RedCue_RedProbe_Top,GreenGaborBoth.png,RedGaborBoth.png,GreenGaborBoth.png,RedGaborDisappearTop.png,Red.mp3,red,top,17,17,0,,,,0,17,17,56,578.9501468750004,,,,,,,,,,,,,,,,top,,,,,,,,578.9361189580013,579.9171880830017,579.9173510830005,585.1669820410007,585.1733155410002,586.4169530000017,586.4187143750005,589.9841537500015,589.9855906250014,591.6177735000001,allgreen,FinalRedContrast,FinalGreenContrast,591.6189037080003,592.9678892910015,3,051226tj,001,2026-05-12_12h13.22.169,priming,,2026.1.3,59.977058654927504,2026-05-12 12h13.22.479909 -0700,
GR_Congruent_GreenCue_GreenProbe_Top,GreenGaborBoth.png,RedGaborBoth.png,GreenGaborDisappearTop.png,RedGaborBoth.png,Green.mp3,green,top,18,18,0,,,,0,18,18,26,592.9835055830008,,,,,,,,,,,,,,,,top,,,,,,,,592.9698327080005,593.7672488750013,593.7674169580005,599.0170585830001,599.0234570000011,600.2671195830007,600.2686155830015,601.7175365000003,601.7191391660017,605.3349443330007,evensplit,FinalRedContrast,FinalGreenContrast,605.3352347500004,606.8345710410013,3,051226tj,001,2026-05-12_12h13.22.169,priming,,2026.1.3,59.977058654927504,2026-05-12 12h13.22.479909 -0700,
GR_Incongruent_GreenCue_RedProbe_Bottom,GreenGaborBoth.png,RedGaborBoth.png,GreenGaborBoth.png,RedGaborDisappearBottom.png,Green.mp3,green,bottom,19,19,0,,,,0,19,19,63,606.850306458,,,,,,,,,,,,,,,,top,,,,,,,,606.8346673750002,607.700726041001,607.7008908330008,612.9503130410012,612.9577996250009,614.2003585410002,614.202466875,617.3008115830016,617.3023647080008,618.1846302080012,evensplit,FinalRedContrast,FinalGreenContrast,618.1857600410003,620.8012562500007,2,051226tj,001,2026-05-12_12h13.22.169,priming,,2026.1.3,59.977058654927504,2026-05-12 12h13.22.479909 -0700,
GR_Congruent_GreenCue_GreenProbe_Bottom,GreenGaborBoth.png,RedGaborBoth.png,GreenGaborDisappearBottom.png,RedGaborBoth.png,Green.mp3,green,bottom,20,20,0,,,,0,20,20,43,620.8170072500016,,,,,,,,,,,,,,,,top,,,,,,,,620.801357833001,622.200869833001,622.2010359580017,627.4503785410016,627.4567727500016,628.7005677910001,628.7018211660015,629.6176161250005,629.619105541,632.4014257500003,allgreen,FinalRedContrast,FinalGreenContrast,632.4025478750009,637.401470791001,2,051226tj,001,2026-05-12_12h13.22.169,priming,,2026.1.3,59.977058654927504,2026-05-12 12h13.22.479909 -0700,
GR_Incongruent_RedCue_GreenProbe_Bottom,GreenGaborBoth.png,RedGaborBoth.png,GreenGaborDisappearBottom.png,RedGaborBoth.png,Red.mp3,red,bottom,21,21,0,,,,0,21,21,53,637.4171826250004,,,,,,,,,,,,,,,,bottom,,,,,,,,637.403082750001,640.7842378330006,640.7844062910008,646.0338770410017,646.0402894160015,647.2839128750002,647.2854269160016,648.0009630410004,648.0025739580014,651.2347212500008,mostlygreen,FinalRedContrast,FinalGreenContrast,651.2358628750007,655.0181217500012,3,051226tj,001,2026-05-12_12h13.22.169,priming,,2026.1.3,59.977058654927504,2026-05-12 12h13.22.479909 -0700,
GR_Incongruent_RedCue_GreenProbe_Bottom,GreenGaborBoth.png,RedGaborBoth.png,GreenGaborDisappearBottom.png,RedGaborBoth.png,Red.mp3,red,bottom,22,22,0,,,,0,22,22,13,655.0338564580015,,,,,,,,,,,,,,,,bottom,,,,,,,,655.0182414160008,657.9175665830007,657.9177309160004,663.1671737910001,663.173614958001,664.4173789160013,664.4187601250014,665.9011138330006,665.9027318750013,669.9015331250012,allgreen,FinalRedContrast,FinalGreenContrast,669.9026790000007,671.8014538750012,3,051226tj,001,2026-05-12_12h13.22.169,priming,,2026.1.3,59.977058654927504,2026-05-12 12h13.22.479909 -0700,
GR_Congruent_RedCue_RedProbe_Top,GreenGaborBoth.png,RedGaborBoth.png,GreenGaborBoth.png,RedGaborDisappearTop.png,Red.mp3,red,top,23,23,0,,,,0,23,23,16,671.8172916250005,,,,,,,,,,,,,,,,top,,,,,,,,671.801549916001,678.0176793750015,678.0178461660016,683.2672391660017,683.2735924160006,684.517436958,684.5192027500016,686.8510637500003,686.8522284580013,690.8015574160017,allgreen,FinalRedContrast,FinalGreenContrast,690.8020761250009,692.5015606660018,3,051226tj,001,2026-05-12_12h13.22.169,priming,,2026.1.3,59.977058654927504,2026-05-12 12h13.22.479909 -0700,
GR_Congruent_RedCue_RedProbe_Bottom,GreenGaborBoth.png,RedGaborBoth.png,GreenGaborBoth.png,RedGaborDisappearBottom.png,Red.mp3,red,bottom,24,24,0,,,,0,24,24,57,692.5172642910002,,,,,,,,,,,,,,,,bottom,,,,,,,,692.5017017910013,693.2676475410008,693.2678123330006,698.5174912910006,698.5241220000007,699.7673796250001,699.769168791001,701.434508833001,701.4362022500009,705.4516229160017,allgreen,FinalRedContrast,FinalGreenContrast,705.45235125,707.7682050830008,2,051226tj,001,2026-05-12_12h13.22.169,priming,,2026.1.3,59.977058654927504,2026-05-12 12h13.22.479909 -0700,
GG_non_riv_catch_GreenCue_GreenProbe_Top,GreenGaborBoth.png,Blank.png,GreenGaborDisappearTop.png,Blank.png,Green.mp3,green,top,25,25,0,,,,0,25,25,78,707.7840543330003,,,,,,,,,,,,,,,,bottom,,,,,,,,707.7700543750016,709.4678177500009,709.4679821660011,714.7174754160005,714.7229671250007,715.9673875410008,715.9693392910012,719.984590125001,719.9854387080013,723.2349620000005,mostlygreen,FinalRedContrast,FinalGreenContrast,723.2362036250015,725.1184957910009,3,051226tj,001,2026-05-12_12h13.22.169,priming,,2026.1.3,59.977058654927504,2026-05-12 12h13.22.479909 -0700,
RR_non_riv_catch_RedCue_RedProbe_Top,Blank.png,RedGaborBoth.png,Blank.png,RedGaborDisappearTop.png,Red.mp3,red,top,26,26,0,,,,0,26,26,72,725.1340582500015,,,,,,,,,,,,,,,,top,,,,,,,,725.1201502910008,728.4677309580002,728.4678947910015,733.717627,733.7230676250001,734.9675821250003,734.9697374160005,737.951333500001,737.9529735830001,740.1187691660016,evensplit,FinalRedContrast,FinalGreenContrast,740.1190625830004,742.6518199580005,2,051226tj,001,2026-05-12_12h13.22.169,priming,,2026.1.3,59.977058654927504,2026-05-12 12h13.22.479909 -0700,
GR_Congruent_RedCue_RedProbe_Top,GreenGaborBoth.png,RedGaborBoth.png,GreenGaborBoth.png,RedGaborDisappearTop.png,Red.mp3,red,top,27,27,0,,,,0,27,27,40,742.6675167910016,,,,,,,,,,,,,,,,bottom,,,,,,,,742.6519279160002,743.3012259580009,743.3013921250003,748.5509831250001,748.5574204580007,749.8008193330006,749.802798916,754.0681680000016,754.0690692910011,755.5686681250008,evensplit,FinalRedContrast,FinalGreenContrast,755.5697290000007,760.1184337910017,2,051226tj,001,2026-05-12_12h13.22.169,priming,,2026.1.3,59.977058654927504,2026-05-12 12h13.22.479909 -0700,
GR_Incongruent_RedCue_GreenProbe_Bottom,GreenGaborBoth.png,RedGaborBoth.png,GreenGaborDisappearBottom.png,RedGaborBoth.png,Red.mp3,red,bottom,28,28,0,,,,0,28,28,61,760.1342891660006,,,,,,,,,,,,,,,,bottom,,,,,,,,760.1185313750011,760.9016299580016,760.9018052500014,766.1508967500013,766.1572471660002,767.4009892080012,767.4025145410014,769.1015902910003,769.1024691250004,769.985295333001,evensplit,FinalRedContrast,FinalGreenContrast,769.9863676250006,771.8352718750011,3,051226tj,001,2026-05-12_12h13.22.169,priming,,2026.1.3,59.977058654927504,2026-05-12 12h13.22.479909 -0700,
GR_Congruent_GreenCue_GreenProbe_Bottom,GreenGaborBoth.png,RedGaborBoth.png,GreenGaborDisappearBottom.png,RedGaborBoth.png,Green.mp3,green,bottom,29,29,0,,,,0,29,29,27,771.8509163750005,,,,,,,,,,,,,,,,bottom,,,,,,,,771.83727,772.3014426660011,772.3016075000014,777.5509868330009,777.5574908750004,778.8010693750002,778.8027741250007,779.6015438330014,779.6028911250014,781.7019116660013,mostlygreen,FinalRedContrast,FinalGreenContrast,781.7026008330013,789.6685201660002,2,051226tj,001,2026-05-12_12h13.22.169,priming,,2026.1.3,59.977058654927504,2026-05-12 12h13.22.479909 -0700,
GR_Incongruent_GreenCue_RedProbe_Top,GreenGaborBoth.png,RedGaborBoth.png,GreenGaborBoth.png,RedGaborDisappearTop.png,Green.mp3,green,top,30,30,0,,,,0,30,30,6,789.6842675000007,,,,,,,,,,,,,,,,bottom,,,,,,,,789.668616166,792.1016985410006,792.1018701660014,797.3510434160016,797.3574738750012,798.6010214160015,798.6028283330015,800.9014570000018,800.9031909160003,804.7853640000012,mostlygreen,FinalRedContrast,FinalGreenContrast,804.7864251660012,807.0521092910003,3,051226tj,001,2026-05-12_12h13.22.169,priming,,2026.1.3,59.977058654927504,2026-05-12 12h13.22.479909 -0700,
GR_Congruent_RedCue_RedProbe_Bottom,GreenGaborBoth.png,RedGaborBoth.png,GreenGaborBoth.png,RedGaborDisappearBottom.png,Red.mp3,red,bottom,31,31,0,,,,0,31,31,33,807.067841,,,,,,,,,,,,,,,,bottom,,,,,,,,807.0537317500002,809.1848393750006,809.1850070830005,814.4345600830002,814.4410360000002,815.6845212500011,815.6857864160011,817.3015087910007,817.3028867910016,826.6686957500006,mostlygreen,FinalRedContrast,FinalGreenContrast,826.6699847910004,832.952038708001,2,051226tj,001,2026-05-12_12h13.22.169,priming,,2026.1.3,59.977058654927504,2026-05-12 12h13.22.479909 -0700,
GR_Incongruent_GreenCue_RedProbe_Bottom,GreenGaborBoth.png,RedGaborBoth.png,GreenGaborBoth.png,RedGaborDisappearBottom.png,Green.mp3,green,bottom,32,32,0,,,,0,32,32,47,832.967733083,,,,,,,,,,,,,,,,top,,,,,,,,832.9539436250016,834.9682560000001,834.9684216250007,840.2180039160012,840.2243787080006,841.4680137080013,841.4697400000005,842.9850871660001,842.9866151660008,844.4188405410005,evensplit,FinalRedContrast,FinalGreenContrast,844.4198120000001,846.5521932910015,4,051226tj,001,2026-05-12_12h13.22.169,priming,,2026.1.3,59.977058654927504,2026-05-12 12h13.22.479909 -0700,
GR_Congruent_RedCue_RedProbe_Bottom,GreenGaborBoth.png,RedGaborBoth.png,GreenGaborBoth.png,RedGaborDisappearBottom.png,Red.mp3,red,bottom,33,33,0,,,,0,33,33,49,846.5679434580015,,,,,,,,,,,,,,,,bottom,,,,,,,,846.5540082080006,862.0516660410012,862.0518305000005,867.3013590830014,867.3078279580004,868.551341458,868.5527123330012,870.6684581660011,870.6698745000012,873.2520667080007,evensplit,FinalRedContrast,FinalGreenContrast,873.2535653330015,874.3856595000016,2,051226tj,001,2026-05-12_12h13.22.169,priming,,2026.1.3,59.977058654927504,2026-05-12 12h13.22.479909 -0700,
GR_Congruent_RedCue_RedProbe_Top,GreenGaborBoth.png,RedGaborBoth.png,GreenGaborBoth.png,RedGaborDisappearTop.png,Red.mp3,red,top,34,34,0,,,,0,34,34,48,874.4014460830003,,,,,,,,,,,,,,,,bottom,,,,,,,,874.3857567080013,875.6351386660008,875.6353038330017,880.8848097500013,880.8913518750014,882.1348428750007,882.1362464580016,884.9185513330012,884.9194391250003,889.6024514580004,evensplit,FinalRedContrast,FinalGreenContrast,889.6029701660009,891.502761916001,1,051226tj,001,2026-05-12_12h13.22.169,priming,,2026.1.3,59.977058654927504,2026-05-12 12h13.22.479909 -0700,
GR_Congruent_RedCue_RedProbe_Bottom,GreenGaborBoth.png,RedGaborBoth.png,GreenGaborBoth.png,RedGaborDisappearBottom.png,Red.mp3,red,bottom,35,35,0,,,,0,35,35,1,891.5180859580014,,,,,,,,,,,,,,,,bottom,,,,,,,,891.5028671660002,892.5351473330011,892.5353102500012,897.7847812910004,897.7912063330004,899.0348216660004,899.036556250001,900.5518553750007,900.5535273330006,901.3689430410013,evensplit,FinalRedContrast,FinalGreenContrast,901.370185875001,903.3355811250003,2,051226tj,001,2026-05-12_12h13.22.169,priming,,2026.1.3,59.977058654927504,2026-05-12 12h13.22.479909 -0700,
GR_Congruent_GreenCue_GreenProbe_Top,GreenGaborBoth.png,RedGaborBoth.png,GreenGaborDisappearTop.png,RedGaborBoth.png,Green.mp3,green,top,36,36,0,,,,0,36,36,10,903.3514347910004,,,,,,,,,,,,,,,,top,,,,,,,,903.3373859580006,913.0018210000017,913.0019900000007,918.2515645410003,918.2580145830016,919.5016156250003,919.502986083,925.8186223750017,925.8202345830014,938.0524430000005,evensplit,FinalRedContrast,FinalGreenContrast,938.0532304160006,940.8868086250004,3,051226tj,001,2026-05-12_12h13.22.169,priming,,2026.1.3,59.977058654927504,2026-05-12 12h13.22.479909 -0700,
GR_Incongruent_RedCue_GreenProbe_Top,GreenGaborBoth.png,RedGaborBoth.png,GreenGaborDisappearTop.png,RedGaborBoth.png,Red.mp3,red,top,37,37,0,,,,0,37,37,12,940.9017380000005,,,,,,,,,,,,,,,,bottom,,,,,,,,940.8884752080012,947.2687069580006,947.2688742080009,952.5184305410003,952.5273646250007,953.7683780830012,953.7700572910016,956.8021357910002,956.8034191660008,958.1358442500004,evensplit,FinalRedContrast,FinalGreenContrast,958.1370344160005,960.6359138750013,3,051226tj,001,2026-05-12_12h13.22.169,priming,,2026.1.3,59.977058654927504,2026-05-12 12h13.22.479909 -0700,
GR_Incongruent_GreenCue_RedProbe_Bottom,GreenGaborBoth.png,RedGaborBoth.png,GreenGaborBoth.png,RedGaborDisappearBottom.png,Green.mp3,green,bottom,38,38,0,,,,0,38,38,23,960.6516527080003,,,,,,,,,,,,,,,,bottom,,,,,,,,960.6377815000014,966.9186225000012,966.9187940000011,972.168443083001,972.1760672500004,973.4183828330006,973.4197403330018,980.1187813750003,980.1203184580008,985.40262325,mostlygreen,FinalRedContrast,FinalGreenContrast,985.403747833001,987.6360477080016,2,051226tj,001,2026-05-12_12h13.22.169,priming,,2026.1.3,59.977058654927504,2026-05-12 12h13.22.479909 -0700,
GR_Congruent_GreenCue_GreenProbe_Top,GreenGaborBoth.png,RedGaborBoth.png,GreenGaborDisappearTop.png,RedGaborBoth.png,Green.mp3,green,top,39,39,0,,,,0,39,39,2,987.651792083001,,,,,,,,,,,,,,,,top,,,,,,,,987.6361502500004,988.4188033750015,988.4189670410015,993.6685117080015,993.67503425,994.918498250001,994.9201270000012,1007.3854655000014,1007.387167791001,1008.6026494580001,evensplit,FinalRedContrast,FinalGreenContrast,1008.6038421660014,1013.8693189160003,2,051226tj,001,2026-05-12_12h13.22.169,priming,,2026.1.3,59.977058654927504,2026-05-12 12h13.22.479909 -0700,
GR_Incongruent_GreenCue_RedProbe_Top,GreenGaborBoth.png,RedGaborBoth.png,GreenGaborBoth.png,RedGaborDisappearTop.png,Green.mp3,green,top,40,40,0,,,,0,40,40,30,1013.8851445830005,,,,,,,,,,,,,,,,bottom,,,,,,,,1013.8694145000009,1014.7855508750017,1014.7857152500001,1020.0352671660003,1020.042853541001,1021.2853289160012,1021.2868656250012,1025.1857080830014,1025.187435791,1028.3027040000015,evensplit,FinalRedContrast,FinalGreenContrast,1028.3039647080004,1032.2695024580007,3,051226tj,001,2026-05-12_12h13.22.169,priming,,2026.1.3,59.977058654927504,2026-05-12 12h13.22.479909 -0700,
GR_Incongruent_RedCue_GreenProbe_Top,GreenGaborBoth.png,RedGaborBoth.png,GreenGaborDisappearTop.png,RedGaborBoth.png,Red.mp3,red,top,41,41,0,,,,0,41,41,60,1032.2852525830003,,,,,,,,,,,,,,,,bottom,,,,,,,,1032.2711814580016,1032.8689138750015,1032.8690793330006,1038.1185742080015,1038.1250223750012,1039.3686401660016,1039.37006225,1041.5523287080014,1041.5541896660015,1043.519517750001,allgreen,FinalRedContrast,FinalGreenContrast,1043.5199645000012,1044.4193507080017,1,051226tj,001,2026-05-12_12h13.22.169,priming,,2026.1.3,59.977058654927504,2026-05-12 12h13.22.479909 -0700,
RR_non_riv_catch_RedCue_RedProbe_Bottom,Blank.png,RedGaborBoth.png,Blank.png,RedGaborDisappearBottom.png,Red.mp3,red,bottom,42,42,0,,,,0,42,42,73,1044.4351867080004,,,,,,,,,,,,,,,,bottom,,,,,,,,1044.4194467080015,1045.3356775410011,1045.3358432080004,1050.585294083001,1050.592075083001,1051.8352511660014,1051.8373738750015,1055.8024548330013,1055.8041070830004,1057.7030412080003,evensplit,FinalRedContrast,FinalGreenContrast,1057.7036599580006,1059.3529391250013,3,051226tj,001,2026-05-12_12h13.22.169,priming,,2026.1.3,59.977058654927504,2026-05-12 12h13.22.479909 -0700,
GR_Congruent_GreenCue_GreenProbe_Bottom,GreenGaborBoth.png,RedGaborBoth.png,GreenGaborDisappearBottom.png,RedGaborBoth.png,Green.mp3,green,bottom,43,43,0,,,,0,43,43,51,1059.3687282500014,,,,,,,,,,,,,,,,bottom,,,,,,,,1059.3548171250004,1060.1024112500018,1060.1025764580008,1065.3520781250008,1065.359638666001,1066.602010333001,1066.604080291001,1076.8525131250008,1076.8541022500012,1078.9030129580005,evensplit,FinalRedContrast,FinalGreenContrast,1078.9034578750015,1080.6697125830015,2,051226tj,001,2026-05-12_12h13.22.169,priming,,2026.1.3,59.977058654927504,2026-05-12 12h13.22.479909 -0700,
GR_Incongruent_GreenCue_RedProbe_Bottom,GreenGaborBoth.png,RedGaborBoth.png,GreenGaborBoth.png,RedGaborDisappearBottom.png,Green.mp3,green,bottom,44,44,0,,,,0,44,44,71,1080.6853741250015,,,,,,,,,,,,,,,,bottom,,,,,,,,1080.669809250001,1081.452376958001,1081.4525391660009,1086.7021198750008,1086.7084652080011,1087.9521409160006,1087.9534880830015,1094.852639875,1094.8542235000004,1095.9030671660003,evensplit,FinalRedContrast,FinalGreenContrast,1095.9035015000009,1103.619735708,2,051226tj,001,2026-05-12_12h13.22.169,priming,,2026.1.3,59.977058654927504,2026-05-12 12h13.22.479909 -0700,
GR_Incongruent_RedCue_GreenProbe_Bottom,GreenGaborBoth.png,RedGaborBoth.png,GreenGaborDisappearBottom.png,RedGaborBoth.png,Red.mp3,red,bottom,45,45,0,,,,0,45,45,45,1103.635403833001,,,,,,,,,,,,,,,,bottom,,,,,,,,1103.6214098330001,1114.7859337500013,1114.7861062500015,1120.035564625001,1120.0442732910014,1121.2856441250005,1121.2874661250007,1127.7027859580012,1127.7037670830014,1131.6532310410003,mostlygreen,FinalRedContrast,FinalGreenContrast,1131.6539345,1133.269896791,2,051226tj,001,2026-05-12_12h13.22.169,priming,,2026.1.3,59.977058654927504,2026-05-12 12h13.22.479909 -0700,
GR_Incongruent_RedCue_GreenProbe_Top,GreenGaborBoth.png,RedGaborBoth.png,GreenGaborDisappearTop.png,RedGaborBoth.png,Red.mp3,red,top,46,46,0,,,,0,46,46,68,1133.2855993330013,,,,,,,,,,,,,,,,top,,,,,,,,1133.270000083001,1133.802568291001,1133.8027325000003,1139.0523128330005,1139.059895583001,1140.3024637500002,1140.3036701660003,1148.6529448750007,1148.653721083001,1150.30330675,evensplit,FinalRedContrast,FinalGreenContrast,1150.3040095830002,1151.586528791,3,051226tj,001,2026-05-12_12h13.22.169,priming,,2026.1.3,59.977058654927504,2026-05-12 12h13.22.479909 -0700,
GR_Congruent_RedCue_RedProbe_Bottom,GreenGaborBoth.png,RedGaborBoth.png,GreenGaborBoth.png,RedGaborDisappearBottom.png,Red.mp3,red,bottom,47,47,0,,,,0,47,47,17,1151.6023605830014,,,,,,,,,,,,,,,,bottom,,,,,,,,1151.5866460000016,1168.0360998750002,1168.036266291001,1173.2858412080004,1173.2935667910006,1174.5357867080002,1174.537686916001,1194.4196287500017,1194.4216443330006,1197.1033099160013,evensplit,FinalRedContrast,FinalGreenContrast,1197.104510041001,1227.9201433750004,2,051226tj,001,2026-05-12_12h13.22.169,priming,,2026.1.3,59.977058654927504,2026-05-12 12h13.22.479909 -0700,
GR_Congruent_GreenCue_GreenProbe_Top,GreenGaborBoth.png,RedGaborBoth.png,GreenGaborDisappearTop.png,RedGaborBoth.png,Green.mp3,green,top,48,48,0,,,,0,48,48,34,1227.9359304160007,,,,,,,,,,,,,,,,bottom,,,,,,,,1227.9219744580005,1228.4862350410003,1228.4864002910017,1233.7358290830016,1233.742302875,1234.9859722910005,1234.9877169160009,1268.9031920410016,1268.9043364580011,1270.9202703750016,mostlygreen,FinalRedContrast,FinalGreenContrast,1270.9214087500004,1272.5701497500013,2,051226tj,001,2026-05-12_12h13.22.169,priming,,2026.1.3,59.977058654927504,2026-05-12 12h13.22.479909 -0700,
GR_Congruent_RedCue_RedProbe_Bottom,GreenGaborBoth.png,RedGaborBoth.png,GreenGaborBoth.png,RedGaborDisappearBottom.png,Red.mp3,red,bottom,49,49,0,,,,0,49,49,41,1272.5859482080014,,,,,,,,,,,,,,,,bottom,,,,,,,,1272.5717757910006,1273.1364334160007,1273.1365999160007,1278.3863137080007,1278.3941330000016,1279.6362976660002,1279.6375250830006,1280.9366071250006,1280.937554041,1282.9036292500004,mostlygreen,FinalRedContrast,FinalGreenContrast,1282.9048125410009,1283.8536547910007,2,051226tj,001,2026-05-12_12h13.22.169,priming,,2026.1.3,59.977058654927504,2026-05-12 12h13.22.479909 -0700,
GR_Congruent_RedCue_RedProbe_Top,GreenGaborBoth.png,RedGaborBoth.png,GreenGaborBoth.png,RedGaborDisappearTop.png,Red.mp3,red,top,50,50,0,,,,0,50,50,64,1283.8694609580016,,,,,,,,,,,,,,,,bottom,,,,,,,,1283.8537509160014,1284.6198248750006,1284.619991208001,1289.8695463330005,1289.8774310830013,1291.1195577500002,1291.121296958001,1294.619973625,1294.6216091660008,1297.3704541660009,allgreen,FinalRedContrast,FinalGreenContrast,1297.3711141660006,1299.020380291,3,051226tj,001,2026-05-12_12h13.22.169,priming,,2026.1.3,59.977058654927504,2026-05-12 12h13.22.479909 -0700,
GR_Incongruent_GreenCue_RedProbe_Top,GreenGaborBoth.png,RedGaborBoth.png,GreenGaborBoth.png,RedGaborDisappearTop.png,Green.mp3,green,top,51,51,0,,,,0,51,51,14,1299.0361487080008,,,,,,,,,,,,,,,,top,,,,,,,,1299.0222438750006,1299.536684083001,1299.5368472910013,1304.7863023750015,1304.7944979580006,1306.0363530410013,1306.0379028750012,1307.6199434160008,1307.6215325830017,1309.0371440410017,mostlyred,FinalRedContrast,FinalGreenContrast,1309.0374812080008,1310.1371348330013,3,051226tj,001,2026-05-12_12h13.22.169,priming,,2026.1.3,59.977058654927504,2026-05-12 12h13.22.479909 -0700,
GR_Congruent_GreenCue_GreenProbe_Top,GreenGaborBoth.png,RedGaborBoth.png,GreenGaborDisappearTop.png,RedGaborBoth.png,Green.mp3,green,top,52,52,0,,,,0,52,52,58,1310.1528199580007,,,,,,,,,,,,,,,,top,,,,,,,,1310.1372465410004,1311.2532817910014,1311.253447000001,1316.5029519160016,1316.5106609160011,1317.753054541001,1317.7544528750004,1319.8033962910013,1319.8048468750003,1321.3705035000003,allgreen,FinalRedContrast,FinalGreenContrast,1321.3715655000015,1323.2038030000003,3,051226tj,001,2026-05-12_12h13.22.169,priming,,2026.1.3,59.977058654927504,2026-05-12 12h13.22.479909 -0700,
GR_Congruent_RedCue_RedProbe_Bottom,GreenGaborBoth.png,RedGaborBoth.png,GreenGaborBoth.png,RedGaborDisappearBottom.png,Red.mp3,red,bottom,53,53,0,,,,0,53,53,9,1323.219573583001,,,,,,,,,,,,,,,,bottom,,,,,,,,1323.205461458001,1324.269997583,1324.2701638750004,1329.5196245830011,1329.5266272910012,1330.7696463750017,1330.770927083,1338.43724225,1338.4379717500015,1340.5872245830014,evensplit,FinalRedContrast,FinalGreenContrast,1340.5882152910017,1342.7705095410001,3,051226tj,001,2026-05-12_12h13.22.169,priming,,2026.1.3,59.977058654927504,2026-05-12 12h13.22.479909 -0700,
GR_Congruent_GreenCue_GreenProbe_Bottom,GreenGaborBoth.png,RedGaborBoth.png,GreenGaborDisappearBottom.png,RedGaborBoth.png,Green.mp3,green,bottom,54,54,0,,,,0,54,54,35,1342.786244500001,,,,,,,,,,,,,,,,top,,,,,,,,1342.7724170000001,1343.653278875001,1343.653442875,1348.9031299580001,1348.9106992910001,1350.1531507910004,1350.154940333001,1361.653532833001,1361.655172750001,1365.2039669160004,evensplit,FinalRedContrast,FinalGreenContrast,1365.2050320000017,1367.2205601250007,2,051226tj,001,2026-05-12_12h13.22.169,priming,,2026.1.3,59.977058654927504,2026-05-12 12h13.22.479909 -0700,
GG_non_riv_catch_GreenCue_GreenProbe_Bottom,GreenGaborBoth.png,Blank.png,GreenGaborDisappearBottom.png,Blank.png,Green.mp3,green,bottom,55,55,0,,,,0,55,55,79,1367.2363261250011,,,,,,,,,,,,,,,,bottom,,,,,,,,1367.220659083001,1367.5866885000014,1367.586851,1372.8366995830002,1372.8431449160016,1374.0864570000012,1374.0879198750008,1379.420249916,1379.4218468750005,1381.0707363330002,evensplit,FinalRedContrast,FinalGreenContrast,1381.0710937910007,1382.737295750001,3,051226tj,001,2026-05-12_12h13.22.169,priming,,2026.1.3,59.977058654927504,2026-05-12 12h13.22.479909 -0700,
GR_Incongruent_GreenCue_RedProbe_Top,GreenGaborBoth.png,RedGaborBoth.png,GreenGaborBoth.png,RedGaborDisappearTop.png,Green.mp3,green,top,56,56,0,,,,0,56,56,22,1382.7530709580005,,,,,,,,,,,,,,,,top,,,,,,,,1382.7373898330006,1383.4536852500005,1383.4538644580007,1388.7032205000014,1388.7097106660003,1389.9532206660006,1389.9548305830012,1397.6870063330007,1397.6885301660004,1398.9041403750016,evensplit,FinalRedContrast,FinalGreenContrast,1398.9052295410002,1400.4040557080007,2,051226tj,001,2026-05-12_12h13.22.169,priming,,2026.1.3,59.977058654927504,2026-05-12 12h13.22.479909 -0700,
GR_Incongruent_RedCue_GreenProbe_Top,GreenGaborBoth.png,RedGaborBoth.png,GreenGaborDisappearTop.png,RedGaborBoth.png,Red.mp3,red,top,57,57,0,,,,0,57,57,4,1400.4198380410016,,,,,,,,,,,,,,,,bottom,,,,,,,,1400.4057246250013,1400.8205359580006,1400.8207412500014,1406.069916583001,1406.0764561250016,1407.3198937910001,1407.3216187080016,1409.0206845000012,1409.0215331660002,1411.1041693750012,mostlygreen,FinalRedContrast,FinalGreenContrast,1411.1051794580017,1417.5207560830004,2,051226tj,001,2026-05-12_12h13.22.169,priming,,2026.1.3,59.977058654927504,2026-05-12 12h13.22.479909 -0700,
GR_Incongruent_GreenCue_RedProbe_Top,GreenGaborBoth.png,RedGaborBoth.png,GreenGaborBoth.png,RedGaborDisappearTop.png,Green.mp3,green,top,58,58,0,,,,0,58,58,54,1417.5366220000014,,,,,,,,,,,,,,,,bottom,,,,,,,,1417.5226432910003,1418.2868577910012,1418.287021125001,1423.5366946250015,1423.5431227080007,1424.786718583,1424.7883887080006,1441.070393416001,1441.0720938330014,1441.8876259160006,evensplit,FinalRedContrast,FinalGreenContrast,1441.8880732500002,1442.7375356250013,3,051226tj,001,2026-05-12_12h13.22.169,priming,,2026.1.3,59.977058654927504,2026-05-12 12h13.22.479909 -0700,
GR_Incongruent_GreenCue_RedProbe_Top,GreenGaborBoth.png,RedGaborBoth.png,GreenGaborBoth.png,RedGaborDisappearTop.png,Green.mp3,green,top,59,59,0,,,,0,59,59,38,1442.7533561660002,,,,,,,,,,,,,,,,top,,,,,,,,1442.7376658330013,1454.386968666,1454.3871383330006,1459.6367733330007,1459.6431498750007,1460.8868965000001,1460.8886383750014,1463.4539871250017,1463.4549606250002,1465.3709902910014,mostlygreen,FinalRedContrast,FinalGreenContrast,1465.3715785000004,1467.154316166001,2,051226tj,001,2026-05-12_12h13.22.169,priming,,2026.1.3,59.977058654927504,2026-05-12 12h13.22.479909 -0700,
RR_non_riv_catch_GreenCue_RedProbe_Bottom,Blank.png,RedGaborBoth.png,Blank.png,RedGaborDisappearBottom.png,Green.mp3,green,bottom,60,60,0,,,,0,60,60,75,1467.1701461250013,,,,,,,,,,,,,,,,top,,,,,,,,1467.1544125,1467.7205508330007,1467.7207125000004,1472.9701721660003,1472.9767123750007,1474.2201415,1474.2219335830014,1477.6038779580012,1477.6055880410004,1479.7876296660015,mostlyred,FinalRedContrast,FinalGreenContrast,1479.7887754580006,1483.7376323330009,3,051226tj,001,2026-05-12_12h13.22.169,priming,,2026.1.3,59.977058654927504,2026-05-12 12h13.22.479909 -0700,
GR_Congruent_RedCue_RedProbe_Bottom,GreenGaborBoth.png,RedGaborBoth.png,GreenGaborBoth.png,RedGaborDisappearBottom.png,Red.mp3,red,bottom,61,61,0,,,,0,61,61,65,1483.753401166001,,,,,,,,,,,,,,,,bottom,,,,,,,,1483.739252333,1484.2037466660004,1484.2039125830015,1489.4534555830014,1489.4598688750011,1490.703420791,1490.7051762500014,1494.4371601660005,1494.438964750001,1496.1543880410009,evensplit,FinalRedContrast,FinalGreenContrast,1496.1554805410015,1497.1378655410008,5,051226tj,001,2026-05-12_12h13.22.169,priming,,2026.1.3,59.977058654927504,2026-05-12 12h13.22.479909 -0700,
GR_Incongruent_GreenCue_RedProbe_Bottom,GreenGaborBoth.png,RedGaborBoth.png,GreenGaborBoth.png,RedGaborDisappearBottom.png,Green.mp3,green,bottom,62,62,0,,,,0,62,62,7,1497.1535886250003,,,,,,,,,,,,,,,,top,,,,,,,,1497.1397291660014,1501.4209651660003,1501.4211641660004,1506.6703080000007,1506.6769330410007,1507.9203636660004,1507.9216060410017,1518.0040614160007,1518.0056553330014,1519.1877703750015,mostlygreen,FinalRedContrast,FinalGreenContrast,1519.1888925410003,1519.9544733330004,2,051226tj,001,2026-05-12_12h13.22.169,priming,,2026.1.3,59.977058654927504,2026-05-12 12h13.22.479909 -0700,
GR_Congruent_GreenCue_GreenProbe_Bottom,GreenGaborBoth.png,RedGaborBoth.png,GreenGaborDisappearBottom.png,RedGaborBoth.png,Green.mp3,green,bottom,63,63,0,,,,0,63,63,59,1519.9701677500016,,,,,,,,,,,,,,,,bottom,,,,,,,,1519.954570916001,1520.5706770000015,1520.570842000001,1525.8202997080007,1525.8276810000007,1527.0703627910007,1527.0720767080002,1528.5207985830002,1528.5219886660016,1530.1545928330015,mostlyred,FinalRedContrast,FinalGreenContrast,1530.155218416001,1531.8544137080007,2,051226tj,001,2026-05-12_12h13.22.169,priming,,2026.1.3,59.977058654927504,2026-05-12 12h13.22.479909 -0700,
GG_non_riv_catch_RedCue_GreenProbe_Top,GreenGaborBoth.png,Blank.png,GreenGaborDisappearTop.png,Blank.png,Red.mp3,red,top,64,64,0,,,,0,64,64,76,1531.8702199160016,,,,,,,,,,,,,,,,top,,,,,,,,1531.8561961250016,1532.3206480830013,1532.320816208001,1537.570436,1537.5772490000018,1538.8204784160007,1538.8220550000005,1541.8875628330006,1541.8890037910005,1545.3711365830004,mostlyred,FinalRedContrast,FinalGreenContrast,1545.3723721250008,1545.8049805830015,5,051226tj,001,2026-05-12_12h13.22.169,priming,,2026.1.3,59.977058654927504,2026-05-12 12h13.22.479909 -0700,
GR_Incongruent_RedCue_GreenProbe_Top,GreenGaborBoth.png,RedGaborBoth.png,GreenGaborDisappearTop.png,RedGaborBoth.png,Red.mp3,red,top,65,65,0,,,,0,65,65,20,1545.8203828330006,,,,,,,,,,,,,,,,bottom,,,,,,,,1545.805088291001,1547.9874985410006,1547.9876693330007,1553.2371303750006,1553.2446856660008,1554.4871406250004,1554.4887513330013,1565.337524083001,1565.3395167500003,1566.8879445830007,mostlygreen,FinalRedContrast,FinalGreenContrast,1566.8891528330005,1568.6546306660002,2,051226tj,001,2026-05-12_12h13.22.169,priming,,2026.1.3,59.977058654927504,2026-05-12 12h13.22.479909 -0700,
GR_Incongruent_RedCue_GreenProbe_Bottom,GreenGaborBoth.png,RedGaborBoth.png,GreenGaborDisappearBottom.png,RedGaborBoth.png,Red.mp3,red,bottom,66,66,0,,,,0,66,66,37,1568.6703055410017,,,,,,,,,,,,,,,,bottom,,,,,,,,1568.654726750001,2004.2555982500016,2004.255769708001,2009.5053427910007,2009.513782375001,2010.7553872910012,2010.7571017080008,2012.389195666001,2012.3907965830003,2013.722814875,evensplit,FinalRedContrast,FinalGreenContrast,2013.724495458,2017.1728836660004,3,051226tj,001,2026-05-12_12h13.22.169,priming,,2026.1.3,59.977058654927504,2026-05-12 12h13.22.479909 -0700,
GR_Incongruent_GreenCue_RedProbe_Bottom,GreenGaborBoth.png,RedGaborBoth.png,GreenGaborBoth.png,RedGaborDisappearBottom.png,Green.mp3,green,bottom,67,67,0,,,,0,67,67,39,2017.1885798750009,,,,,,,,,,,,,,,,bottom,,,,,,,,2017.1748616660007,2022.8225082500012,2022.8226722500003,2028.072088291001,2028.0797200000015,2029.322091166001,2029.3239680000006,2031.3558705000014,2031.3566219580007,2034.206230916001,evensplit,FinalRedContrast,FinalGreenContrast,2034.2070172080003,2035.7729731660002,3,051226tj,001,2026-05-12_12h13.22.169,priming,,2026.1.3,59.977058654927504,2026-05-12 12h13.22.479909 -0700,
GR_Congruent_GreenCue_GreenProbe_Top,GreenGaborBoth.png,RedGaborBoth.png,GreenGaborDisappearTop.png,RedGaborBoth.png,Green.mp3,green,top,68,68,0,,,,0,68,68,66,2035.788732041001,,,,,,,,,,,,,,,,top,,,,,,,,2035.773071083,2036.255858333001,2036.2560242910004,2041.5054560000008,2041.5119847080005,2042.7555232910017,2042.757051333001,2043.722567541001,2043.724209625001,2044.8728569160012,evensplit,FinalRedContrast,FinalGreenContrast,2044.8741812500011,2046.1061956660014,4,051226tj,001,2026-05-12_12h13.22.169,priming,,2026.1.3,59.977058654927504,2026-05-12 12h13.22.479909 -0700,
GR_Incongruent_RedCue_GreenProbe_Bottom,GreenGaborBoth.png,RedGaborBoth.png,GreenGaborDisappearBottom.png,RedGaborBoth.png,Red.mp3,red,bottom,69,69,0,,,,0,69,69,5,2046.122053000001,,,,,,,,,,,,,,,,bottom,,,,,,,,2046.1079933750007,2046.489142208,2046.4893056660003,2051.7387723750016,2051.745297083,2052.9888548750005,2052.9905774160015,2053.7891518750002,2053.7909448750015,2054.4395714580005,evensplit,FinalRedContrast,FinalGreenContrast,2054.440721500001,2055.456289375001,4,051226tj,001,2026-05-12_12h13.22.169,priming,,2026.1.3,59.977058654927504,2026-05-12 12h13.22.479909 -0700,
GR_Incongruent_RedCue_GreenProbe_Bottom,GreenGaborBoth.png,RedGaborBoth.png,GreenGaborDisappearBottom.png,RedGaborBoth.png,Red.mp3,red,bottom,70,70,0,,,,0,70,70,69,2055.472030000001,,,,,,,,,,,,,,,,bottom,,,,,,,,2055.4563858330002,2055.8556682910003,2055.855830708,2061.1055186250014,2061.1120463750012,2062.3555864160007,2062.357159250001,2063.0227013330004,2063.0243170410013,2064.1230787080003,evensplit,FinalRedContrast,FinalGreenContrast,2064.123619541,2065.7897116250006,4,051226tj,001,2026-05-12_12h13.22.169,priming,,2026.1.3,59.977058654927504,2026-05-12 12h13.22.479909 -0700,
GR_Incongruent_GreenCue_RedProbe_Top,GreenGaborBoth.png,RedGaborBoth.png,GreenGaborBoth.png,RedGaborDisappearTop.png,Green.mp3,green,top,71,71,0,,,,0,71,71,46,2065.805535083,,,,,,,,,,,,,,,,top,,,,,,,,2065.7916081250005,2066.405889083,2066.406054375,2071.6555750000007,2071.6632612910016,2072.9056019580003,2072.9073089580015,2073.589335750001,2073.5903889580004,2074.7896767910006,evensplit,FinalRedContrast,FinalGreenContrast,2074.7903542910008,2075.940147833,4,051226tj,001,2026-05-12_12h13.22.169,priming,,2026.1.3,59.977058654927504,2026-05-12 12h13.22.479909 -0700,
GG_non_riv_catch_RedCue_GreenProbe_Bottom,GreenGaborBoth.png,Blank.png,GreenGaborDisappearBottom.png,Blank.png,Red.mp3,red,bottom,72,72,0,,,,0,72,72,77,2075.9554533750015,,,,,,,,,,,,,,,,bottom,,,,,,,,2075.9417429160003,2076.489254375001,2076.4894171250016,2081.7390075000003,2081.745240583001,2082.9888917080007,2082.990572750001,2084.1560201250013,2084.157635708001,2085.5569678750016,allgreen,FinalRedContrast,FinalGreenContrast,2085.5572284160007,2087.8898421250015,5,051226tj,001,2026-05-12_12h13.22.169,priming,,2026.1.3,59.977058654927504,2026-05-12 12h13.22.479909 -0700,
GR_Congruent_RedCue_RedProbe_Top,GreenGaborBoth.png,RedGaborBoth.png,GreenGaborBoth.png,RedGaborDisappearTop.png,Red.mp3,red,top,73,73,0,,,,0,73,73,32,2087.905535166001,,,,,,,,,,,,,,,,top,,,,,,,,2087.8899865000003,2088.406008666001,2088.406177750001,2093.6555828750006,2093.6620380000004,2094.905528833,2094.9073605830017,2096.356003666,2096.3578780410007,2098.789903250001,evensplit,FinalRedContrast,FinalGreenContrast,2098.7905342500017,2100.2898717080006,3,051226tj,001,2026-05-12_12h13.22.169,priming,,2026.1.3,59.977058654927504,2026-05-12 12h13.22.479909 -0700,
GR_Congruent_RedCue_RedProbe_Top,GreenGaborBoth.png,RedGaborBoth.png,GreenGaborBoth.png,RedGaborDisappearTop.png,Red.mp3,red,top,74,74,0,,,,0,74,74,8,2100.3056423750004,,,,,,,,,,,,,,,,top,,,,,,,,2100.2899660000003,2100.689420500001,2100.6895869580003,2105.9390914580017,2105.945594625,2107.1890331660015,2107.190778958,2108.322795833001,2108.3242825410016,2110.6399150830002,mostlyred,FinalRedContrast,FinalGreenContrast,2110.6410046660003,2112.9232705000013,3,051226tj,001,2026-05-12_12h13.22.169,priming,,2026.1.3,59.977058654927504,2026-05-12 12h13.22.479909 -0700,
GR_Congruent_GreenCue_GreenProbe_Bottom,GreenGaborBoth.png,RedGaborBoth.png,GreenGaborDisappearBottom.png,RedGaborBoth.png,Green.mp3,green,bottom,75,75,0,,,,0,75,75,11,2112.9389253750014,,,,,,,,,,,,,,,,bottom,,,,,,,,2112.9252856250005,2113.9560179580003,2113.9561914160004,2119.205733916,2119.2121268750016,2120.455745833,2120.4574660000017,2121.139455208,2121.1406393330017,2122.2399265410004,evensplit,FinalRedContrast,FinalGreenContrast,2122.240892625001,2123.4399424580006,3,051226tj,001,2026-05-12_12h13.22.169,priming,,2026.1.3,59.977058654927504,2026-05-12 12h13.22.479909 -0700,
GR_Incongruent_GreenCue_RedProbe_Top,GreenGaborBoth.png,RedGaborBoth.png,GreenGaborBoth.png,RedGaborDisappearTop.png,Green.mp3,green,top,76,76,0,,,,0,76,76,62,2123.455645041,,,,,,,,,,,,,,,,top,,,,,,,,2123.4400519580013,2123.789265583,2123.789431250001,2129.039041,2129.0455819160015,2130.2890382080004,2130.2908941250007,2133.706145,2133.707955791,2135.0731584160003,evensplit,FinalRedContrast,FinalGreenContrast,2135.0741915830004,2136.4233723750003,3,051226tj,001,2026-05-12_12h13.22.169,priming,,2026.1.3,59.977058654927504,2026-05-12 12h13.22.479909 -0700,
GR_Incongruent_GreenCue_RedProbe_Bottom,GreenGaborBoth.png,RedGaborBoth.png,GreenGaborBoth.png,RedGaborDisappearBottom.png,Green.mp3,green,bottom,77,77,0,,,,0,77,77,15,2136.4391345410004,,,,,,,,,,,,,,,,bottom,,,,,,,,2136.4234776250014,2137.089483916001,2137.0896507080015,2142.33914025,2142.347990958,2143.5892115410006,2143.5904517080016,2144.7562230000003,2144.7577053330006,2146.0567070410016,evensplit,FinalRedContrast,FinalGreenContrast,2146.057516916,2147.3899501250016,3,051226tj,001,2026-05-12_12h13.22.169,priming,,2026.1.3,59.977058654927504,2026-05-12 12h13.22.479909 -0700,
GR_Incongruent_GreenCue_RedProbe_Bottom,GreenGaborBoth.png,RedGaborBoth.png,GreenGaborBoth.png,RedGaborDisappearBottom.png,Green.mp3,green,bottom,78,78,0,,,,0,78,78,55,2147.4057747080005,,,,,,,,,,,,,,,,bottom,,,,,,,,2147.390044208001,2147.806179041001,2147.806344083001,2153.055789416001,2153.0622874160017,2154.3058311660006,2154.3080796660015,2154.956230625001,2154.9570847500017,2156.5399579160003,evensplit,FinalRedContrast,FinalGreenContrast,2156.540355000001,2157.373409791,4,051226tj,001,2026-05-12_12h13.22.169,priming,,2026.1.3,59.977058654927504,2026-05-12 12h13.22.479909 -0700,
GR_Congruent_RedCue_RedProbe_Top,GreenGaborBoth.png,RedGaborBoth.png,GreenGaborBoth.png,RedGaborDisappearTop.png,Red.mp3,red,top,79,79,0,,,,0,79,79,24,2157.3890526250016,,,,,,,,,,,,,,,,top,,,,,,,,2157.375225875001,2157.7060910830005,2157.7062532080017,2162.955797083001,2162.9634274580003,2164.20582275,2164.2077560000016,2164.8563199160017,2164.8576988330005,2166.9066673330017,evensplit,FinalRedContrast,FinalGreenContrast,2166.9075027080016,2167.1732832080015,4,051226tj,001,2026-05-12_12h13.22.169,priming,,2026.1.3,59.977058654927504,2026-05-12 12h13.22.479909 -0700,
GR_Congruent_GreenCue_GreenProbe_Top,GreenGaborBoth.png,RedGaborBoth.png,GreenGaborDisappearTop.png,RedGaborBoth.png,Green.mp3,green,top,80,0,1,,,,1,0,80,18,2167.189146750001,,,,,,,,,,,,,,,,top,,,,,,,,2167.1751225410007,2167.7894966660006,2167.789662250001,2173.039225333001,2173.0469282500017,2174.2892997080016,2174.291058541001,2175.140029041,2175.1404058750013,2178.523826583001,evensplit,FinalRedContrast,FinalGreenContrast,2178.5246527500003,2179.473486250001,3,051226tj,001,2026-05-12_12h13.22.169,priming,,2026.1.3,59.977058654927504,2026-05-12 12h13.22.479909 -0700,
GR_Incongruent_RedCue_GreenProbe_Top,GreenGaborBoth.png,RedGaborBoth.png,GreenGaborDisappearTop.png,RedGaborBoth.png,Red.mp3,red,top,81,1,1,,,,1,1,81,28,2179.489228708,,,,,,,,,,,,,,,,top,,,,,,,,2179.475053833001,2179.8229436250003,2179.8231101660003,2185.0726655000017,2185.0792467500014,2186.3226557080015,2186.3244680410007,2187.673030541,2187.674537666,2189.723988208001,mostlygreen,FinalRedContrast,FinalGreenContrast,2189.7243172500002,2190.606785791,3,051226tj,001,2026-05-12_12h13.22.169,priming,,2026.1.3,59.977058654927504,2026-05-12 12h13.22.479909 -0700,
GR_Incongruent_RedCue_GreenProbe_Top,GreenGaborBoth.png,RedGaborBoth.png,GreenGaborDisappearTop.png,RedGaborBoth.png,Red.mp3,red,top,82,2,1,,,,1,2,82,20,2190.6225297500005,,,,,,,,,,,,,,,,top,,,,,,,,2190.606879666,2190.972973541,2190.9731367080003,2196.222587833001,2196.229001083,2197.4726727080015,2197.4741507910003,2198.3730904580007,2198.3747693330006,2199.6067710000007,mostlygreen,FinalRedContrast,FinalGreenContrast,2199.607942583001,2202.406897375,3,051226tj,001,2026-05-12_12h13.22.169,priming,,2026.1.3,59.977058654927504,2026-05-12 12h13.22.479909 -0700,
GR_Incongruent_GreenCue_RedProbe_Top,GreenGaborBoth.png,RedGaborBoth.png,GreenGaborBoth.png,RedGaborDisappearTop.png,Green.mp3,green,top,83,3,1,,,,1,3,83,14,2202.4225428750015,,,,,,,,,,,,,,,,top,,,,,,,,2202.4087592080014,2206.0730255410017,2206.0731935000003,2211.3227735,2211.329253625001,2212.572770083001,2212.5740893330003,2216.1898180410008,2216.190882666,2218.623604333001,mostlyred,FinalRedContrast,FinalGreenContrast,2218.6248044580007,2222.073628625001,3,051226tj,001,2026-05-12_12h13.22.169,priming,,2026.1.3,59.977058654927504,2026-05-12 12h13.22.479909 -0700,
GR_Incongruent_RedCue_GreenProbe_Bottom,GreenGaborBoth.png,RedGaborBoth.png,GreenGaborDisappearBottom.png,RedGaborBoth.png,Red.mp3,red,bottom,84,4,1,,,,1,4,84,45,2222.089417000001,,,,,,,,,,,,,,,,bottom,,,,,,,,2222.0752392910017,2223.1896395000003,2223.1898072910008,2228.4394465000005,2228.4470339580002,2229.6893749580013,2229.691150333001,2230.539848208,2230.541305791001,2231.9240363750014,evensplit,FinalRedContrast,FinalGreenContrast,2231.9243102500004,2234.473675958001,3,051226tj,001,2026-05-12_12h13.22.169,priming,,2026.1.3,59.977058654927504,2026-05-12 12h13.22.479909 -0700,
GR_Incongruent_GreenCue_RedProbe_Bottom,GreenGaborBoth.png,RedGaborBoth.png,GreenGaborBoth.png,RedGaborDisappearBottom.png,Green.mp3,green,bottom,85,5,1,,,,1,5,85,55,2234.4893114160004,,,,,,,,,,,,,,,,bottom,,,,,,,,2234.4756916250008,2235.3231610830007,2235.323329916,2240.5728241250017,2240.579377541,2241.822849958,2241.8247060830017,2243.8732036250003,2243.874855541,2249.3737812910003,evensplit,FinalRedContrast,FinalGreenContrast,2249.3743232080014,2251.3070292910015,3,051226tj,001,2026-05-12_12h13.22.169,priming,,2026.1.3,59.977058654927504,2026-05-12 12h13.22.479909 -0700,
GR_Congruent_GreenCue_GreenProbe_Top,GreenGaborBoth.png,RedGaborBoth.png,GreenGaborDisappearTop.png,RedGaborBoth.png,Green.mp3,green,top,86,6,1,,,,1,6,86,2,2251.322820208001,,,,,,,,,,,,,,,,top,,,,,,,,2251.3071252910013,2251.9069554160014,2251.907134500001,2257.1562191660014,2257.1625890410014,2258.406127833001,2258.407878166001,2259.539947000001,2259.5409792910013,2262.873695,evensplit,FinalRedContrast,FinalGreenContrast,2262.8749737910002,2265.106996833001,4,051226tj,001,2026-05-12_12h13.22.169,priming,,2026.1.3,59.977058654927504,2026-05-12 12h13.22.479909 -0700,
GR_Congruent_RedCue_RedProbe_Top,GreenGaborBoth.png,RedGaborBoth.png,GreenGaborBoth.png,RedGaborDisappearTop.png,Red.mp3,red,top,87,7,1,,,,1,7,87,40,2265.122902291001,,,,,,,,,,,,,,,,bottom,,,,,,,,2265.108661125001,2265.7236269160003,2265.7238148330016,2270.9729394160004,2270.9793206660015,2272.2229317500005,2272.224245833,2273.706625750001,2273.7082956660015,2276.7071622500007,mostlygreen,FinalRedContrast,FinalGreenContrast,2276.708393666,2277.023748875001,2,051226tj,001,2026-05-12_12h13.22.169,priming,,2026.1.3,59.977058654927504,2026-05-12 12h13.22.479909 -0700,
GR_Incongruent_GreenCue_RedProbe_Bottom,GreenGaborBoth.png,RedGaborBoth.png,GreenGaborBoth.png,RedGaborDisappearBottom.png,Green.mp3,green,bottom,88,8,1,,,,1,8,88,31,2277.0394173330005,,,,,,,,,,,,,,,,bottom,,,,,,,,2277.025630291,2277.7398785410005,2277.740041541001,2282.9896145410003,2282.9961965830007,2284.2395555830008,2284.241067625,2285.940055041001,2285.9418295000014,2286.6237866660013,evensplit,FinalRedContrast,FinalGreenContrast,2286.624927625,2287.32381625,3,051226tj,001,2026-05-12_12h13.22.169,priming,,2026.1.3,59.977058654927504,2026-05-12 12h13.22.479909 -0700,
GR_Incongruent_RedCue_GreenProbe_Bottom,GreenGaborBoth.png,RedGaborBoth.png,GreenGaborDisappearBottom.png,RedGaborBoth.png,Red.mp3,red,bottom,89,9,1,,,,1,9,89,53,2287.339656416001,,,,,,,,,,,,,,,,bottom,,,,,,,,2287.3254435830004,2287.7733352080013,2287.773499041001,2293.0230386250005,2293.0294170000016,2294.2730492500013,2294.274670750001,2295.4566577080004,2295.458519791,2297.1238720830006,mostlygreen,FinalRedContrast,FinalGreenContrast,2297.124153083001,2298.4738685830016,4,051226tj,001,2026-05-12_12h13.22.169,priming,,2026.1.3,59.977058654927504,2026-05-12 12h13.22.479909 -0700,
GR_Incongruent_GreenCue_RedProbe_Bottom,GreenGaborBoth.png,RedGaborBoth.png,GreenGaborBoth.png,RedGaborDisappearBottom.png,Green.mp3,green,bottom,90,10,1,,,,1,10,90,63,2298.4896298330004,,,,,,,,,,,,,,,,bottom,,,,,,,,2298.475743041001,2298.9400005410007,2298.940176125001,2304.1896598330004,2304.196020708001,2305.439614166,2305.441672166,2306.4234107500015,2306.4245555410016,2308.2238247080004,evensplit,FinalRedContrast,FinalGreenContrast,2308.224914083001,2309.3739461250007,3,051226tj,001,2026-05-12_12h13.22.169,priming,,2026.1.3,59.977058654927504,2026-05-12 12h13.22.479909 -0700,
GR_Incongruent_RedCue_GreenProbe_Top,GreenGaborBoth.png,RedGaborBoth.png,GreenGaborDisappearTop.png,RedGaborBoth.png,Red.mp3,red,top,91,11,1,,,,1,11,91,52,2309.3895220410013,,,,,,,,,,,,,,,,top,,,,,,,,2309.3755474160007,2309.7733685000003,2309.773531875,2315.023005500001,2315.0293207910017,2316.2730669580014,2316.274790083,2317.406692083001,2317.4083002080006,2318.990492125,mostlygreen,FinalRedContrast,FinalGreenContrast,2318.991736125001,2319.92415375,4,051226tj,001,2026-05-12_12h13.22.169,priming,,2026.1.3,59.977058654927504,2026-05-12 12h13.22.479909 -0700,
GR_Congruent_RedCue_RedProbe_Bottom,GreenGaborBoth.png,RedGaborBoth.png,GreenGaborBoth.png,RedGaborDisappearBottom.png,Red.mp3,red,bottom,92,12,1,,,,1,12,92,57,2319.939665791,,,,,,,,,,,,,,,,bottom,,,,,,,,2319.924256166001,2320.2234082080013,2320.2235711660014,2325.473214333,2325.479644541001,2326.7230950830017,2326.724652166,2327.5069494580002,2327.5085764580017,2329.3244442080013,evensplit,FinalRedContrast,FinalGreenContrast,2329.3247476660017,2329.640622250001,3,051226tj,001,2026-05-12_12h13.22.169,priming,,2026.1.3,59.977058654927504,2026-05-12 12h13.22.479909 -0700,
GR_Congruent_GreenCue_GreenProbe_Bottom,GreenGaborBoth.png,RedGaborBoth.png,GreenGaborDisappearBottom.png,RedGaborBoth.png,Green.mp3,green,bottom,93,13,1,,,,1,13,93,51,2329.6564261660005,,,,,,,,,,,,,,,,bottom,,,,,,,,2329.6425648330005,2330.1401257080015,2330.1402924580016,2335.3898205410005,2335.3962100830013,2336.639840166001,2336.641391291001,2337.2905229160006,2337.291481583001,2338.4072354580003,mostlygreen,FinalRedContrast,FinalGreenContrast,2338.4085669160013,2339.7906712080003,3,051226tj,001,2026-05-12_12h13.22.169,priming,,2026.1.3,59.977058654927504,2026-05-12 12h13.22.479909 -0700,
GR_Incongruent_GreenCue_RedProbe_Bottom,GreenGaborBoth.png,RedGaborBoth.png,GreenGaborBoth.png,RedGaborDisappearBottom.png,Green.mp3,green,bottom,94,14,1,,,,1,14,94,71,2339.8063781250003,,,,,,,,,,,,,,,,bottom,,,,,,,,2339.7907667910004,2340.1401461660007,2340.1403195410003,2345.3897890830012,2345.396230708,2346.639820458,2346.6413104580006,2347.4734871250002,2347.4752104160016,2349.2406140000003,evensplit,FinalRedContrast,FinalGreenContrast,2349.241856333001,2349.6072053750013,2,051226tj,001,2026-05-12_12h13.22.169,priming,,2026.1.3,59.977058654927504,2026-05-12 12h13.22.479909 -0700,
GR_Incongruent_GreenCue_RedProbe_Top,GreenGaborBoth.png,RedGaborBoth.png,GreenGaborBoth.png,RedGaborDisappearTop.png,Green.mp3,green,top,95,15,1,,,,1,15,95,6,2349.6230452080017,,,,,,,,,,,,,,,,top,,,,,,,,2349.607301416001,2350.173479250001,2350.1736423330003,2355.423157458001,2355.4296398330007,2356.673192166001,2356.674500000001,2358.506892708001,2358.5086061250004,2359.7073329580016,evensplit,FinalRedContrast,FinalGreenContrast,2359.708145458,2361.273960458,3,051226tj,001,2026-05-12_12h13.22.169,priming,,2026.1.3,59.977058654927504,2026-05-12 12h13.22.479909 -0700,
GR_Congruent_GreenCue_GreenProbe_Bottom,GreenGaborBoth.png,RedGaborBoth.png,GreenGaborDisappearBottom.png,RedGaborBoth.png,Green.mp3,green,bottom,96,16,1,,,,1,16,96,27,2361.2896829580004,,,,,,,,,,,,,,,,bottom,,,,,,,,2361.274106625,2361.6735008330015,2361.6736649580016,2366.9233107910004,2366.9296687080005,2368.1733087500015,2368.1749115410003,2369.0906936660012,2369.0916714580017,2373.1741048330005,evensplit,FinalRedContrast,FinalGreenContrast,2373.175294083001,2374.6241264580003,3,051226tj,001,2026-05-12_12h13.22.169,priming,,2026.1.3,59.977058654927504,2026-05-12 12h13.22.479909 -0700,
GR_Congruent_RedCue_RedProbe_Bottom,GreenGaborBoth.png,RedGaborBoth.png,GreenGaborBoth.png,RedGaborDisappearBottom.png,Red.mp3,red,bottom,97,17,1,,,,1,17,97,33,2374.6398269580004,,,,,,,,,,,,,,,,bottom,,,,,,,,2374.6257775410013,2375.0735347500013,2375.0736982910003,2380.3233064160013,2380.329750625,2381.573340416,2381.5750257080017,2383.140269708001,2383.141398541,2385.1407315000015,evensplit,FinalRedContrast,FinalGreenContrast,2385.1415273330003,2387.1741674580007,3,051226tj,001,2026-05-12_12h13.22.169,priming,,2026.1.3,59.977058654927504,2026-05-12 12h13.22.479909 -0700,
GR_Incongruent_GreenCue_RedProbe_Top,GreenGaborBoth.png,RedGaborBoth.png,GreenGaborBoth.png,RedGaborDisappearTop.png,Green.mp3,green,top,98,18,1,,,,1,18,98,46,2387.189810791,,,,,,,,,,,,,,,,top,,,,,,,,2387.1760237500002,2387.423531833001,2387.423697833001,2392.6733010410007,2392.6797610830017,2393.9232622500003,2393.9249478330003,2394.8736860830013,2394.8753725410006,2396.3907452500007,mostlyred,FinalRedContrast,FinalGreenContrast,2396.3922717080004,2397.4740032500013,4,051226tj,001,2026-05-12_12h13.22.169,priming,,2026.1.3,59.977058654927504,2026-05-12 12h13.22.479909 -0700,
GR_Congruent_GreenCue_GreenProbe_Bottom,GreenGaborBoth.png,RedGaborBoth.png,GreenGaborDisappearBottom.png,RedGaborBoth.png,Green.mp3,green,bottom,99,19,1,,,,1,19,99,35,2397.489862458,,,,,,,,,,,,,,,,bottom,,,,,,,,2397.474099750001,2397.7735710410016,2397.7737346660015,2403.023399875001,2403.029767625001,2404.2734141660003,2404.2751589580002,2405.8404412500004,2405.842173791001,2409.4075920000014,evensplit,FinalRedContrast,FinalGreenContrast,2409.4087411250002,2412.1575048330014,3,051226tj,001,2026-05-12_12h13.22.169,priming,,2026.1.3,59.977058654927504,2026-05-12 12h13.22.479909 -0700,
GR_Incongruent_RedCue_GreenProbe_Bottom,GreenGaborBoth.png,RedGaborBoth.png,GreenGaborDisappearBottom.png,RedGaborBoth.png,Red.mp3,red,bottom,100,20,1,,,,1,20,100,13,2412.1733646250013,,,,,,,,,,,,,,,,bottom,,,,,,,,2412.1591592080003,2412.6070568330015,2412.6072187910013,2417.8567248750005,2417.8631113750016,2419.1066754580006,2419.1085989580006,2422.257144125,2422.2584645000006,2423.874130833001,evensplit,FinalRedContrast,FinalGreenContrast,2423.875524416,2425.4242037080003,3,051226tj,001,2026-05-12_12h13.22.169,priming,,2026.1.3,59.977058654927504,2026-05-12 12h13.22.479909 -0700,
GR_Incongruent_GreenCue_RedProbe_Top,GreenGaborBoth.png,RedGaborBoth.png,GreenGaborBoth.png,RedGaborDisappearTop.png,Green.mp3,green,top,101,21,1,,,,1,21,101,30,2425.439999041,,,,,,,,,,,,,,,,bottom,,,,,,,,2425.4261832500015,2425.957072708001,2425.957236833001,2431.206733791001,2431.213075666001,2432.4567125830017,2432.458693333001,2433.290967541001,2433.2914799160008,2435.674533458001,mostlyred,FinalRedContrast,FinalGreenContrast,2435.674837833001,2437.4242198750017,3,051226tj,001,2026-05-12_12h13.22.169,priming,,2026.1.3,59.977058654927504,2026-05-12 12h13.22.479909 -0700,
GR_Congruent_RedCue_RedProbe_Bottom,GreenGaborBoth.png,RedGaborBoth.png,GreenGaborBoth.png,RedGaborDisappearBottom.png,Red.mp3,red,bottom,102,22,1,,,,1,22,102,65,2437.4401060830005,,,,,,,,,,,,,,,,bottom,,,,,,,,2437.4260078330008,2437.6571317080015,2437.6572971660007,2442.9068302080013,2442.9132485830014,2444.1568870830015,2444.1585117910017,2446.2739319580014,2446.275619541,2450.6410814580013,allred,FinalRedContrast,FinalGreenContrast,2450.6421764160004,2452.691460875001,3,051226tj,001,2026-05-12_12h13.22.169,priming,,2026.1.3,59.977058654927504,2026-05-12 12h13.22.479909 -0700,
GR_Incongruent_GreenCue_RedProbe_Bottom,GreenGaborBoth.png,RedGaborBoth.png,GreenGaborBoth.png,RedGaborDisappearBottom.png,Green.mp3,green,bottom,103,23,1,,,,1,23,103,23,2452.7067433750017,,,,,,,,,,,,,,,,bottom,,,,,,,,2452.6932507910005,2453.2572358330017,2453.257396625,2458.506871333,2458.5133430410006,2459.7568720000017,2459.7584424160013,2461.657380333001,2461.658913708001,2465.607712250001,mostlygreen,FinalRedContrast,FinalGreenContrast,2465.6088908750007,2466.607679875,3,051226tj,001,2026-05-12_12h13.22.169,priming,,2026.1.3,59.977058654927504,2026-05-12 12h13.22.479909 -0700,
GR_Incongruent_GreenCue_RedProbe_Bottom,GreenGaborBoth.png,RedGaborBoth.png,GreenGaborBoth.png,RedGaborDisappearBottom.png,Green.mp3,green,bottom,104,24,1,,,,1,24,104,15,2466.623494833,,,,,,,,,,,,,,,,bottom,,,,,,,,2466.6077755410006,2466.8907672080004,2466.8909654160016,2472.140305041001,2472.1466325830006,2473.3901050410004,2473.3916810830015,2474.3240004160016,2474.3249583330016,2475.974350833001,mostlyred,FinalRedContrast,FinalGreenContrast,2475.9755047500003,2477.1410987910003,3,051226tj,001,2026-05-12_12h13.22.169,priming,,2026.1.3,59.977058654927504,2026-05-12 12h13.22.479909 -0700,
GR_Incongruent_RedCue_GreenProbe_Top,GreenGaborBoth.png,RedGaborBoth.png,GreenGaborDisappearTop.png,RedGaborBoth.png,Red.mp3,red,top,105,25,1,,,,1,25,105,12,2477.1569267080013,,,,,,,,,,,,,,,,top,,,,,,,,2477.142736375001,2477.4073200410003,2477.4074875410006,2482.656971583001,2482.6633220000003,2483.9070066660006,2483.9086261660013,2484.607314500001,2484.608919833001,2486.0077477910017,mostlyred,FinalRedContrast,FinalGreenContrast,2486.009021875001,2486.5579595000017,4,051226tj,001,2026-05-12_12h13.22.169,priming,,2026.1.3,59.977058654927504,2026-05-12 12h13.22.479909 -0700,
RR_non_riv_catch_GreenCue_RedProbe_Bottom,Blank.png,RedGaborBoth.png,Blank.png,RedGaborDisappearBottom.png,Green.mp3,green,bottom,106,26,1,,,,1,26,106,75,2486.573560375,,,,,,,,,,,,,,,,bottom,,,,,,,,2486.559943583001,2487.7574011250017,2487.7575698750006,2493.0069381250014,2493.0131927500006,2494.257007958,2494.258697958001,2495.4240783330006,2495.4256154580016,2497.8744940410015,allred,FinalRedContrast,FinalGreenContrast,2497.875539875,2499.2915338330004,5,051226tj,001,2026-05-12_12h13.22.169,priming,,2026.1.3,59.977058654927504,2026-05-12 12h13.22.479909 -0700,
GR_Congruent_RedCue_RedProbe_Top,GreenGaborBoth.png,RedGaborBoth.png,GreenGaborBoth.png,RedGaborDisappearTop.png,Red.mp3,red,top,107,27,1,,,,1,27,107,16,2499.3070345410015,,,,,,,,,,,,,,,,top,,,,,,,,2499.2932189580006,2500.0906282080014,2500.0907928330016,2505.3403409580005,2505.346777541001,2506.590297083001,2506.5922596660002,2507.457415541001,2507.4587530830013,2509.2411390830002,allred,FinalRedContrast,FinalGreenContrast,2509.242349416001,2510.324510083001,4,051226tj,001,2026-05-12_12h13.22.169,priming,,2026.1.3,59.977058654927504,2026-05-12 12h13.22.479909 -0700,
GR_Congruent_GreenCue_GreenProbe_Top,GreenGaborBoth.png,RedGaborBoth.png,GreenGaborDisappearTop.png,RedGaborBoth.png,Green.mp3,green,top,108,28,1,,,,1,28,108,66,2510.340270875,,,,,,,,,,,,,,,,bottom,,,,,,,,2510.326411625001,2510.874155208001,2510.8743505830007,2516.1237332500004,2516.1300790410005,2517.3737612080004,2517.375526625001,2519.074192041,2519.0760017910015,2520.558002916001,allred,FinalRedContrast,FinalGreenContrast,2520.558721458001,2520.924675125001,4,051226tj,001,2026-05-12_12h13.22.169,priming,,2026.1.3,59.977058654927504,2026-05-12 12h13.22.479909 -0700,
GR_Congruent_GreenCue_GreenProbe_Top,GreenGaborBoth.png,RedGaborBoth.png,GreenGaborDisappearTop.png,RedGaborBoth.png,Green.mp3,green,top,109,29,1,,,,1,29,109,58,2520.9404182080016,,,,,,,,,,,,,,,,top,,,,,,,,2520.9247740830015,2521.7407836250004,2521.740945333,2526.9904810000007,2526.996824375001,2528.240474041,2528.2417297500015,2531.4074956250006,2531.4092181660017,2533.6579598750013,mostlyred,FinalRedContrast,FinalGreenContrast,2533.658748166001,2535.0079424580017,4,051226tj,001,2026-05-12_12h13.22.169,priming,,2026.1.3,59.977058654927504,2026-05-12 12h13.22.479909 -0700,
GR_Incongruent_RedCue_GreenProbe_Bottom,GreenGaborBoth.png,RedGaborBoth.png,GreenGaborDisappearBottom.png,RedGaborBoth.png,Red.mp3,red,bottom,110,30,1,,,,1,30,110,21,2535.0236989160003,,,,,,,,,,,,,,,,bottom,,,,,,,,2535.0096941250013,2535.4407345,2535.440897333001,2540.690366500001,2540.6967872080004,2541.9404376660004,2541.9427005410016,2544.240747375001,2544.2424934580013,2545.2746150410003,allred,FinalRedContrast,FinalGreenContrast,2545.2757744580013,2546.641252208001,3,051226tj,001,2026-05-12_12h13.22.169,priming,,2026.1.3,59.977058654927504,2026-05-12 12h13.22.479909 -0700,
RR_non_riv_catch_RedCue_RedProbe_Bottom,Blank.png,RedGaborBoth.png,Blank.png,RedGaborDisappearBottom.png,Red.mp3,red,bottom,111,31,1,,,,1,31,111,73,2546.657059500001,,,,,,,,,,,,,,,,bottom,,,,,,,,2546.6414015830014,2547.107604916,2547.1077693330008,2552.3571295830006,2552.362778875,2553.6072617910013,2553.6089839160013,2556.2243447500005,2556.225931791001,2558.358645958,allred,FinalRedContrast,FinalGreenContrast,2558.359041791,2559.558088791,4,051226tj,001,2026-05-12_12h13.22.169,priming,,2026.1.3,59.977058654927504,2026-05-12 12h13.22.479909 -0700,
GR_Congruent_RedCue_RedProbe_Bottom,GreenGaborBoth.png,RedGaborBoth.png,GreenGaborBoth.png,RedGaborDisappearBottom.png,Red.mp3,red,bottom,112,32,1,,,,1,32,112,1,2559.573837416001,,,,,,,,,,,,,,,,bottom,,,,,,,,2559.558189833,2559.9908915410015,2559.9910545410003,2565.2405665410006,2565.2470618750012,2566.4905752080012,2566.4919557910016,2567.5743522910016,2567.575273083001,2573.8247118750005,allred,FinalRedContrast,FinalGreenContrast,2573.8259585000014,2575.6414536250013,4,051226tj,001,2026-05-12_12h13.22.169,priming,,2026.1.3,59.977058654927504,2026-05-12 12h13.22.479909 -0700,
GR_Incongruent_RedCue_GreenProbe_Top,GreenGaborBoth.png,RedGaborBoth.png,GreenGaborDisappearTop.png,RedGaborBoth.png,Red.mp3,red,top,113,33,1,,,,1,33,113,44,2575.6571572910016,,,,,,,,,,,,,,,,top,,,,,,,,2575.6415569580004,2576.090895958001,2576.0910619160004,2581.340610250001,2581.3471219580006,2582.590647791001,2582.5919676250014,2584.674437791,2584.6755595410013,2585.3914094580014,evensplit,FinalRedContrast,FinalGreenContrast,2585.3926368750017,2587.0081175410014,3,051226tj,001,2026-05-12_12h13.22.169,priming,,2026.1.3,59.977058654927504,2026-05-12 12h13.22.479909 -0700,
GR_Congruent_RedCue_RedProbe_Bottom,GreenGaborBoth.png,RedGaborBoth.png,GreenGaborBoth.png,RedGaborDisappearBottom.png,Red.mp3,red,bottom,114,34,1,,,,1,34,114,41,2587.0238611660006,,,,,,,,,,,,,,,,bottom,,,,,,,,2587.008212875,2587.540948291,2587.541112375,2592.7907170410017,2592.7971643750006,2594.0406245000013,2594.0421268750015,2595.0578026250005,2595.059391916,2598.09159025,evensplit,FinalRedContrast,FinalGreenContrast,2598.092648416001,2599.324844625,3,051226tj,001,2026-05-12_12h13.22.169,priming,,2026.1.3,59.977058654927504,2026-05-12 12h13.22.479909 -0700,
GR_Congruent_GreenCue_GreenProbe_Bottom,GreenGaborBoth.png,RedGaborBoth.png,GreenGaborDisappearBottom.png,RedGaborBoth.png,Green.mp3,green,bottom,115,35,1,,,,1,35,115,19,2599.340674166,,,,,,,,,,,,,,,,bottom,,,,,,,,2599.326743875001,2599.6577132910006,2599.6578827910016,2604.907377583,2604.9137694580004,2606.1573857500007,2606.158876708001,2606.791147916001,2606.7925440410017,2608.4748898750004,evensplit,FinalRedContrast,FinalGreenContrast,2608.475966416001,2609.4586135830014,3,051226tj,001,2026-05-12_12h13.22.169,priming,,2026.1.3,59.977058654927504,2026-05-12 12h13.22.479909 -0700,
RR_non_riv_catch_GreenCue_RedProbe_Top,Blank.png,RedGaborBoth.png,Blank.png,RedGaborDisappearTop.png,Green.mp3,green,top,116,36,1,,,,1,36,116,74,2609.473921750001,,,,,,,,,,,,,,,,top,,,,,,,,2609.458714708,2609.7243639160006,2609.7245328750014,2614.9740041660007,2614.9795786660015,2616.224174500001,2616.2257450410016,2618.091121458001,2618.0927065000014,2620.758255625,mostlyred,FinalRedContrast,FinalGreenContrast,2620.759405666,2622.0415389160007,3,051226tj,001,2026-05-12_12h13.22.169,priming,,2026.1.3,59.977058654927504,2026-05-12 12h13.22.479909 -0700,
GR_Congruent_GreenCue_GreenProbe_Bottom,GreenGaborBoth.png,RedGaborBoth.png,GreenGaborDisappearBottom.png,RedGaborBoth.png,Green.mp3,green,bottom,117,37,1,,,,1,37,117,11,2622.057438416001,,,,,,,,,,,,,,,,bottom,,,,,,,,2622.041636041,2622.5744862500014,2622.574651166,2627.8241252080006,2627.8304925830016,2629.0741315410014,2629.0756939580006,2629.8078026250005,2629.809346416001,2631.575014375001,evensplit,FinalRedContrast,FinalGreenContrast,2631.576070416,2632.225050000001,2,051226tj,001,2026-05-12_12h13.22.169,priming,,2026.1.3,59.977058654927504,2026-05-12 12h13.22.479909 -0700,
GR_Incongruent_RedCue_GreenProbe_Top,GreenGaborBoth.png,RedGaborBoth.png,GreenGaborDisappearTop.png,RedGaborBoth.png,Red.mp3,red,top,118,38,1,,,,1,38,118,4,2632.2407010410006,,,,,,,,,,,,,,,,top,,,,,,,,2632.2267348330006,2633.2245102080014,2633.2246734160017,2638.474294083,2638.4806559160006,2639.7241816250007,2639.7261653330006,2641.8578819580016,2641.8593850410016,2643.0753640830007,evensplit,FinalRedContrast,FinalGreenContrast,2643.0756490410004,2644.4587168330017,3,051226tj,001,2026-05-12_12h13.22.169,priming,,2026.1.3,59.977058654927504,2026-05-12 12h13.22.479909 -0700,
GR_Incongruent_RedCue_GreenProbe_Bottom,GreenGaborBoth.png,RedGaborBoth.png,GreenGaborDisappearBottom.png,RedGaborBoth.png,Red.mp3,red,bottom,119,39,1,,,,1,39,119,69,2644.4741327500014,,,,,,,,,,,,,,,,bottom,,,,,,,,2644.4588140410015,2644.974458083001,2644.97462325,2650.2241905830015,2650.2306741660013,2651.4742058750016,2651.4755346250004,2652.141291416001,2652.1427172080002,2653.5583320000005,evensplit,FinalRedContrast,FinalGreenContrast,2653.5591794580014,2653.8917377080015,5,051226tj,001,2026-05-12_12h13.22.169,priming,,2026.1.3,59.977058654927504,2026-05-12 12h13.22.479909 -0700,
GR_Incongruent_RedCue_GreenProbe_Bottom,GreenGaborBoth.png,RedGaborBoth.png,GreenGaborDisappearBottom.png,RedGaborBoth.png,Red.mp3,red,bottom,120,40,1,,,,1,40,120,37,2653.9074829160018,,,,,,,,,,,,,,,,bottom,,,,,,,,2653.8918332910016,2654.6912221250004,2654.691387750001,2659.940839000001,2659.9472991250004,2661.190894208001,2661.1925357080017,2661.824670375001,2661.8260455,2662.741717500001,evensplit,FinalRedContrast,FinalGreenContrast,2662.7422155410004,2664.108351500001,3,051226tj,001,2026-05-12_12h13.22.169,priming,,2026.1.3,59.977058654927504,2026-05-12 12h13.22.479909 -0700,
GR_Incongruent_RedCue_GreenProbe_Top,GreenGaborBoth.png,RedGaborBoth.png,GreenGaborDisappearTop.png,RedGaborBoth.png,Red.mp3,red,top,121,41,1,,,,1,41,121,68,2664.124133041001,,,,,,,,,,,,,,,,top,,,,,,,,2664.1084446660007,2664.6579686660007,2664.658152916001,2669.907637708,2669.9139767080014,2671.1576568750006,2671.1596931660006,2672.4751487500016,2672.4756445410003,2674.075414291001,evensplit,FinalRedContrast,FinalGreenContrast,2674.076134166,2676.2584647080002,3,051226tj,001,2026-05-12_12h13.22.169,priming,,2026.1.3,59.977058654927504,2026-05-12 12h13.22.479909 -0700,
GR_Incongruent_GreenCue_RedProbe_Bottom,GreenGaborBoth.png,RedGaborBoth.png,GreenGaborBoth.png,RedGaborDisappearBottom.png,Green.mp3,green,bottom,122,42,1,,,,1,42,122,47,2676.2742234160014,,,,,,,,,,,,,,,,bottom,,,,,,,,2676.2604825410017,2676.757946666001,2676.758110916,2682.007670666,2682.014884125001,2683.2577090000013,2683.2590024160017,2683.8416633750003,2683.842750916001,2686.541876041001,allred,FinalRedContrast,FinalGreenContrast,2686.5425455410004,2687.658591458001,3,051226tj,001,2026-05-12_12h13.22.169,priming,,2026.1.3,59.977058654927504,2026-05-12 12h13.22.479909 -0700,
GR_Congruent_RedCue_RedProbe_Top,GreenGaborBoth.png,RedGaborBoth.png,GreenGaborBoth.png,RedGaborDisappearTop.png,Red.mp3,red,top,123,43,1,,,,1,43,123,0,2687.6743498330015,,,,,,,,,,,,,,,,top,,,,,,,,2687.660324708,2688.0414055830006,2688.0415815000015,2693.291019958,2693.2984760830004,2694.540957125,2694.542658083001,2696.5080744160005,2696.509727083001,2697.9584545410016,mostlyred,FinalRedContrast,FinalGreenContrast,2697.9597082500004,2699.4085594160006,4,051226tj,001,2026-05-12_12h13.22.169,priming,,2026.1.3,59.977058654927504,2026-05-12 12h13.22.479909 -0700,
GR_Incongruent_GreenCue_RedProbe_Top,GreenGaborBoth.png,RedGaborBoth.png,GreenGaborBoth.png,RedGaborDisappearTop.png,Green.mp3,green,top,124,44,1,,,,1,44,124,62,2699.424244666001,,,,,,,,,,,,,,,,bottom,,,,,,,,2699.410572750001,2699.7246099580007,2699.7247719160005,2704.974319041001,2704.9807011660014,2706.2243236250015,2706.226035875001,2708.3248404160004,2708.325907083001,2710.558591000001,mostlyred,FinalRedContrast,FinalGreenContrast,2710.5597499580017,2710.875349375001,4,051226tj,001,2026-05-12_12h13.22.169,priming,,2026.1.3,59.977058654927504,2026-05-12 12h13.22.479909 -0700,
GR_Incongruent_GreenCue_RedProbe_Bottom,GreenGaborBoth.png,RedGaborBoth.png,GreenGaborBoth.png,RedGaborDisappearBottom.png,Green.mp3,green,bottom,125,45,1,,,,1,45,125,39,2710.8909571660006,,,,,,,,,,,,,,,,bottom,,,,,,,,2710.8754536250017,2711.4414101660004,2711.4415816660003,2716.691103000001,2716.697437500001,2717.9410907910005,2717.9423726250006,2718.9916015000017,2718.9930653750016,2720.7919425,mostlyred,FinalRedContrast,FinalGreenContrast,2720.792363583001,2722.5919171660007,4,051226tj,001,2026-05-12_12h13.22.169,priming,,2026.1.3,59.977058654927504,2026-05-12 12h13.22.479909 -0700,
GR_Incongruent_GreenCue_RedProbe_Top,GreenGaborBoth.png,RedGaborBoth.png,GreenGaborBoth.png,RedGaborDisappearTop.png,Green.mp3,green,top,126,46,1,,,,1,46,126,38,2722.6076780000003,,,,,,,,,,,,,,,,top,,,,,,,,2722.592013708001,2722.9413883750003,2722.941560000001,2728.1909946660016,2728.197376666001,2729.441039583,2729.442780333,2730.1749269580014,2730.176268708001,2731.7418287910004,evensplit,FinalRedContrast,FinalGreenContrast,2731.7430359160007,2732.842431125,3,051226tj,001,2026-05-12_12h13.22.169,priming,,2026.1.3,59.977058654927504,2026-05-12 12h13.22.479909 -0700,
GG_non_riv_catch_GreenCue_GreenProbe_Bottom,GreenGaborBoth.png,Blank.png,GreenGaborDisappearBottom.png,Blank.png,Green.mp3,green,bottom,127,47,1,,,,1,47,127,79,2732.857757375001,,,,,,,,,,,,,,,,bottom,,,,,,,,2732.842556333,2733.25833925,2733.258525000001,2738.507955416,2738.514681583001,2739.7580190830013,2739.759261708001,2741.2916394580006,2741.2931636250014,2743.975202083,allgreen,FinalRedContrast,FinalGreenContrast,2743.976533375,2745.6752261660004,4,051226tj,001,2026-05-12_12h13.22.169,priming,,2026.1.3,59.977058654927504,2026-05-12 12h13.22.479909 -0700,
GG_non_riv_catch_RedCue_GreenProbe_Bottom,GreenGaborBoth.png,Blank.png,GreenGaborDisappearBottom.png,Blank.png,Red.mp3,red,bottom,128,48,1,,,,1,48,128,77,2745.6909579580006,,,,,,,,,,,,,,,,bottom,,,,,,,,2745.676968666001,2746.0414599160013,2746.0416259580015,2751.2912187910006,2751.2967260000005,2752.541238875001,2752.5425273750006,2754.0584477500015,2754.059059833,2755.008960291001,allgreen,FinalRedContrast,FinalGreenContrast,2755.0099359160013,2756.092030416001,3,051226tj,001,2026-05-12_12h13.22.169,priming,,2026.1.3,59.977058654927504,2026-05-12 12h13.22.479909 -0700,
GG_non_riv_catch_RedCue_GreenProbe_Top,GreenGaborBoth.png,Blank.png,GreenGaborDisappearTop.png,Blank.png,Red.mp3,red,top,129,49,1,,,,1,49,129,76,2756.107729708001,,,,,,,,,,,,,,,,top,,,,,,,,2756.092129750001,2756.5582482910013,2756.5584155410015,2761.8078111250015,2761.815306833001,2763.0579120410002,2763.0592082500007,2764.7415532080013,2764.743288791,2766.825539583,allgreen,FinalRedContrast,FinalGreenContrast,2766.8264741660005,2767.1420683750002,3,051226tj,001,2026-05-12_12h13.22.169,priming,,2026.1.3,59.977058654927504,2026-05-12 12h13.22.479909 -0700,
GG_non_riv_catch_GreenCue_GreenProbe_Top,GreenGaborBoth.png,Blank.png,GreenGaborDisappearTop.png,Blank.png,Green.mp3,green,top,130,50,1,,,,1,50,130,78,2767.1578262910007,,,,,,,,,,,,,,,,top,,,,,,,,2767.1439712500014,2767.8749750000006,2767.8751440410015,2773.1244889160007,2773.1299975830007,2774.3746283750006,2774.3761425830016,2775.924988083001,2775.926758916001,2777.4753972080016,allgreen,FinalRedContrast,FinalGreenContrast,2777.4766010000003,2779.0424221250014,4,051226tj,001,2026-05-12_12h13.22.169,priming,,2026.1.3,59.977058654927504,2026-05-12 12h13.22.479909 -0700,
GR_Incongruent_RedCue_GreenProbe_Bottom,GreenGaborBoth.png,RedGaborBoth.png,GreenGaborDisappearBottom.png,RedGaborBoth.png,Red.mp3,red,bottom,131,51,1,,,,1,51,131,61,2779.0577925830003,,,,,,,,,,,,,,,,bottom,,,,,,,,2779.0439813750017,2780.3915290410005,2780.3917000830006,2785.6412405830015,2785.649190625001,2786.8915323750007,2786.892744291001,2787.7583859160004,2787.76001075,2791.0255598330004,evensplit,FinalRedContrast,FinalGreenContrast,2791.026653500001,2792.8588666660016,3,051226tj,001,2026-05-12_12h13.22.169,priming,,2026.1.3,59.977058654927504,2026-05-12 12h13.22.479909 -0700,
GR_Congruent_GreenCue_GreenProbe_Top,GreenGaborBoth.png,RedGaborBoth.png,GreenGaborDisappearTop.png,RedGaborBoth.png,Green.mp3,green,top,132,52,1,,,,1,52,132,10,2792.8746546660004,,,,,,,,,,,,,,,,top,,,,,,,,2792.8607256660016,2793.2583680000007,2793.2585311250004,2798.507904416001,2798.514382583,2799.7579365830006,2799.7595083330016,2801.058405541,2801.0599196660005,2803.22619725,mostlyred,FinalRedContrast,FinalGreenContrast,2803.226554041001,2806.6755240410002,3,051226tj,001,2026-05-12_12h13.22.169,priming,,2026.1.3,59.977058654927504,2026-05-12 12h13.22.479909 -0700,
GR_Congruent_RedCue_RedProbe_Top,GreenGaborBoth.png,RedGaborBoth.png,GreenGaborBoth.png,RedGaborDisappearTop.png,Red.mp3,red,top,133,53,1,,,,1,53,133,24,2806.691323750001,,,,,,,,,,,,,,,,top,,,,,,,,2806.6772209580013,2807.5584325830005,2807.5585984160007,2812.808042333001,2812.815592250001,2814.057989375,2814.059724791001,2814.7417331660017,2814.743195375,2816.3089405830015,evensplit,FinalRedContrast,FinalGreenContrast,2816.3095006250005,2816.9256749160013,3,051226tj,001,2026-05-12_12h13.22.169,priming,,2026.1.3,59.977058654927504,2026-05-12 12h13.22.479909 -0700,
GR_Incongruent_RedCue_GreenProbe_Top,GreenGaborBoth.png,RedGaborBoth.png,GreenGaborDisappearTop.png,RedGaborBoth.png,Red.mp3,red,top,134,54,1,,,,1,54,134,36,2816.9412975000014,,,,,,,,,,,,,,,,top,,,,,,,,2816.925795125,2817.3749708330015,2817.3751391660007,2822.6246897910005,2822.6311352500015,2823.874695333001,2823.8760110410003,2824.541800000001,2824.543428791001,2830.025626208,mostlyred,FinalRedContrast,FinalGreenContrast,2830.0266436250004,2831.225979416,3,051226tj,001,2026-05-12_12h13.22.169,priming,,2026.1.3,59.977058654927504,2026-05-12 12h13.22.479909 -0700,
GR_Incongruent_GreenCue_RedProbe_Bottom,GreenGaborBoth.png,RedGaborBoth.png,GreenGaborBoth.png,RedGaborDisappearBottom.png,Green.mp3,green,bottom,135,55,1,,,,1,55,135,7,2831.2413083750016,,,,,,,,,,,,,,,,bottom,,,,,,,,2831.227917708,2834.025142708,2834.0253117910015,2839.2748202910007,2839.283614875001,2840.5248310000006,2840.526375958001,2842.3252285830004,2842.3268294160007,2843.2422453750005,evensplit,FinalRedContrast,FinalGreenContrast,2843.243342916001,2845.0590403330007,3,051226tj,001,2026-05-12_12h13.22.169,priming,,2026.1.3,59.977058654927504,2026-05-12 12h13.22.479909 -0700,
GR_Congruent_GreenCue_GreenProbe_Top,GreenGaborBoth.png,RedGaborBoth.png,GreenGaborDisappearTop.png,RedGaborBoth.png,Green.mp3,green,top,136,56,1,,,,1,56,136,50,2845.074675791,,,,,,,,,,,,,,,,top,,,,,,,,2845.0591354160006,2845.625309541001,2845.6254829160007,2850.8747857500002,2850.8823515000004,2852.124826291001,2852.1261530830016,2852.7252391250004,2852.726321375001,2854.159079416,evensplit,FinalRedContrast,FinalGreenContrast,2854.1597727080007,2854.4426191660004,3,051226tj,001,2026-05-12_12h13.22.169,priming,,2026.1.3,59.977058654927504,2026-05-12 12h13.22.479909 -0700,
GR_Incongruent_RedCue_GreenProbe_Bottom,GreenGaborBoth.png,RedGaborBoth.png,GreenGaborDisappearBottom.png,RedGaborBoth.png,Red.mp3,red,bottom,137,57,1,,,,1,57,137,5,2854.458099208001,,,,,,,,,,,,,,,,bottom,,,,,,,,2854.4442010410003,2855.0751508330013,2855.075317750001,2860.3247925410014,2860.3324001660003,2861.5748423330006,2861.5766617080008,2863.042391291001,2863.042797166001,2864.792417916,evensplit,FinalRedContrast,FinalGreenContrast,2864.7929415410017,2865.992365166001,3,051226tj,001,2026-05-12_12h13.22.169,priming,,2026.1.3,59.977058654927504,2026-05-12 12h13.22.479909 -0700,
GR_Congruent_RedCue_RedProbe_Top,GreenGaborBoth.png,RedGaborBoth.png,GreenGaborBoth.png,RedGaborDisappearTop.png,Red.mp3,red,top,138,58,1,,,,1,58,138,8,2866.008073791001,,,,,,,,,,,,,,,,top,,,,,,,,2865.9925043330004,2866.4253833330004,2866.4255783750014,2871.6749493750012,2871.6824093330015,2872.9251302910016,2872.9268184580014,2873.7919329160013,2873.793613791,2875.3757625830003,evensplit,FinalRedContrast,FinalGreenContrast,2875.3764011660005,2876.3424971660006,3,051226tj,001,2026-05-12_12h13.22.169,priming,,2026.1.3,59.977058654927504,2026-05-12 12h13.22.479909 -0700,
GR_Congruent_GreenCue_GreenProbe_Bottom,GreenGaborBoth.png,RedGaborBoth.png,GreenGaborDisappearBottom.png,RedGaborBoth.png,Green.mp3,green,bottom,139,59,1,,,,1,59,139,3,2876.3581195410006,,,,,,,,,,,,,,,,bottom,,,,,,,,2876.3443101660014,2876.6752547080014,2876.6754460830016,2881.9248932910014,2881.9312638750016,2883.1749475000015,2883.176880500001,2883.958905458001,2883.9596475830003,2885.009129125001,evensplit,FinalRedContrast,FinalGreenContrast,2885.010118416001,2885.425881250001,4,051226tj,001,2026-05-12_12h13.22.169,priming,,2026.1.3,59.977058654927504,2026-05-12 12h13.22.479909 -0700,
