label,LstartingStim,RstartingStim,LvisualStim,RvisualStim,audioCue,visualCue,probe_loc,thisN,thisTrialN,thisRepN,staircase.thisTrialN,staircase.stepSize,staircase.intensity,trials.thisRepN,trials.thisTrialN,trials.thisN,trials.thisIndex,thisRow.t,notes,piloting,stim offset,continue_resp.keys,continue_resp.rt,continue_resp.duration,fixation.started,fixation.stopped,greenContrast,redContrast,adjusted_contrast.started,adjusted_contrast.stopped,staircase_response.started,staircase_response.stopped,stair_response,probe_response,staircase.response,prevTrial,isRed,isReversal,cumReversal,contrastArray,contrastAverage,start_trial.started,start_trial.stopped,cue.started,cue.stopped,probe.started,probe.stopped,probe_response.started,probe_response.stopped,subjective_response.started,subjective_response.stopped,subj_response,RedContrast,GreenContrast,vividness_response.started,vividness_response.stopped,vivid_response,participant,session,date,expName,expVersion,psychopyVersion,frameRate,expStart,
,,,,,,,,,,,,,,,,,,,,False,0.362,,,,,,,,,,,,,,,,,,,,,,,,,,,,,,,,,,,,,051226cm,001,2026-05-12_14h08.53.923,priming,,2026.1.3,60.00282025225579,2026-05-12 14h08.54.540040 -0700,
,,,,,,,,,,,,,,,,,,,,,,space,24.241134332998627,None,,,,,,,,,,,,,,,,,,,,,,,,,,,,,,,,,,051226cm,001,2026-05-12_14h08.53.923,priming,,2026.1.3,60.00282025225579,2026-05-12 14h08.54.540040 -0700,
,,,,,,,,,,,0,0.2,0.5,,,,,53.32288966700071,,,,,,,53.30705254200075,54.30631608399926,0.5,0.5,54.31328245899931,56.05627962500148,56.062426791999314,57.70695695900213,mostlyred,red,1,1000,1,0,0,[],0,,,,,,,,,,,,,,,,,051226cm,001,2026-05-12_14h08.53.923,priming,,2026.1.3,60.00282025225579,2026-05-12 14h08.54.540040 -0700,
,,,,,,,,,,,1,0.1,0.3,,,,,57.72290795899971,,,,,,,57.707222749999346,58.7062638339994,0.7,0.3,58.70979549999902,60.456291334001435,60.45795474999977,61.79030566700021,mostlygreen,green,0,1,0,1,1,[],0,,,,,,,,,,,,,,,,,051226cm,001,2026-05-12_14h08.53.923,priming,,2026.1.3,60.00282025225579,2026-05-12 14h08.54.540040 -0700,
,,,,,,,,,,,2,0.1,0.4,,,,,61.806132000001526,,,,,,,61.79055095900185,62.789635375000216,0.6,0.4,62.793163000002096,64.53963933400155,64.54151154200008,65.70699170900116,mostlygreen,green,0,0,0,0,1,[],0,,,,,,,,,,,,,,,,,051226cm,001,2026-05-12_14h08.53.923,priming,,2026.1.3,60.00282025225579,2026-05-12 14h08.54.540040 -0700,
,,,,,,,,,,,3,0.1,0.5,,,,,65.72281929200108,,,,,,,65.70724045899988,66.70631258399953,0.5,0.5,66.70989141700193,68.4562806670001,68.457962667002,71.89039970900194,mostlygreen,green,0,0,0,0,1,[],0,,,,,,,,,,,,,,,,,051226cm,001,2026-05-12_14h08.53.923,priming,,2026.1.3,60.00282025225579,2026-05-12 14h08.54.540040 -0700,
,,,,,,,,,,,4,0.1,0.6,,,,,71.90615474999868,,,,,,,71.89064983400021,72.88950183400084,0.4,0.6,72.89296870900216,74.63967183400018,74.6409815420011,75.85701466699902,allred,red,1,0,1,1,2,[],0,,,,,,,,,,,,,,,,,051226cm,001,2026-05-12_14h08.53.923,priming,,2026.1.3,60.00282025225579,2026-05-12 14h08.54.540040 -0700,
,,,,,,,,,,,5,0.1,0.5,,,,,75.872937791999,,,,,,,75.8572624590015,76.8562735839987,0.5,0.5,76.85965704200134,78.60634483399917,78.60819312500098,85.52375770900107,mostlyred,red,1,1,1,0,2,[],0,,,,,,,,,,,,,,,,,051226cm,001,2026-05-12_14h08.53.923,priming,,2026.1.3,60.00282025225579,2026-05-12 14h08.54.540040 -0700,
,,,,,,,,,,,6,0.05,0.4,,,,,85.53971020899917,,,,,,,85.52400929199939,86.52307512500192,0.6,0.4,86.52655137500187,88.27306600000156,88.27437004199965,89.8070845000002,mostlygreen,green,0,1,0,1,3,[],0,,,,,,,,,,,,,,,,,051226cm,001,2026-05-12_14h08.53.923,priming,,2026.1.3,60.00282025225579,2026-05-12 14h08.54.540040 -0700,
,,,,,,,,,,,7,0.05,0.45,,,,,89.82303175000197,,,,,,,89.80733054200027,90.80636641700039,0.55,0.45,90.80976083399946,92.55645037499926,92.55821554200156,94.27372625000135,mostlyred,red,1,0,1,1,4,[],0,,,,,,,,,,,,,,,,,051226cm,001,2026-05-12_14h08.53.923,priming,,2026.1.3,60.00282025225579,2026-05-12 14h08.54.540040 -0700,
,,,,,,,,,,,8,0.025,0.4,,,,,94.2897120000016,,,,,,,94.27397454200036,95.27310187500188,0.6,0.4,95.2765639169993,97.02307416700205,97.02480650000143,98.4571225840009,mostlygreen,green,0,1,0,1,5,[],0,,,,,,,,,,,,,,,,,051226cm,001,2026-05-12_14h08.53.923,priming,,2026.1.3,60.00282025225579,2026-05-12 14h08.54.540040 -0700,
,,,,,,,,,,,9,0.025,0.42500000000000004,,,,,98.47305287500058,,,,,,,98.45738087499922,99.45639650000157,0.575,0.42500000000000004,99.45988320900142,101.20645645900004,101.2078430420006,103.79033925000113,mostlygreen,green,0,0,0,0,5,[],0,,,,,,,,,,,,,,,,,051226cm,001,2026-05-12_14h08.53.923,priming,,2026.1.3,60.00282025225579,2026-05-12 14h08.54.540040 -0700,
,,,,,,,,,,,10,0.025,0.45000000000000007,,,,,103.8063797499999,,,,,,,103.79058583400183,104.78979570899901,0.5499999999999999,0.45000000000000007,104.79330058400228,106.53977674999987,106.54120729200076,107.70717983400027,mostlyred,red,1,0,1,1,6,[0.45000000000000007],0.45000000000000007,,,,,,,,,,,,,,,,,051226cm,001,2026-05-12_14h08.53.923,priming,,2026.1.3,60.00282025225579,2026-05-12 14h08.54.540040 -0700,
,,,,,,,,,,,11,0.025,0.42500000000000004,,,,,107.72300600000017,,,,,,,107.70750662499995,108.70634870900176,0.575,0.42500000000000004,108.7100269170005,110.45638579200022,110.45858833400052,115.20725004199994,mostlyred,red,1,1,1,0,6,[0.45000000000000007],0.45000000000000007,,,,,,,,,,,,,,,,,051226cm,001,2026-05-12_14h08.53.923,priming,,2026.1.3,60.00282025225579,2026-05-12 14h08.54.540040 -0700,
,,,,,,,,,,,12,0.025,0.4,,,,,115.22314933400048,,,,,,,115.20749737500228,116.20655433399952,0.6,0.4,116.2100669169995,117.95653541700085,117.95822233400031,118.70721729200159,mostlygreen,green,0,1,0,1,7,"[0.45000000000000007, 0.4]",0.42500000000000004,,,,,,,,,,,,,,,,,051226cm,001,2026-05-12_14h08.53.923,priming,,2026.1.3,60.00282025225579,2026-05-12 14h08.54.540040 -0700,
,,,,,,,,,,,13,0.025,0.42500000000000004,,,,,118.72309795900219,,,,,,,118.70746666700143,119.70655670899941,0.575,0.42500000000000004,119.71004158399955,121.45652708399939,121.45790583399867,123.54058158400221,mostlygreen,green,0,0,0,0,7,"[0.45000000000000007, 0.4]",0.42500000000000004,,,,,,,,,,,,,,,,,051226cm,001,2026-05-12_14h08.53.923,priming,,2026.1.3,60.00282025225579,2026-05-12 14h08.54.540040 -0700,
,,,,,,,,,,,14,0.025,0.45000000000000007,,,,,123.55645637500129,,,,,,,123.5408274170004,124.5398932499993,0.5499999999999999,0.45000000000000007,124.54336020900155,126.28983262499969,126.29161254200153,127.34061679200022,mostlyred,red,1,0,1,1,8,"[0.45000000000000007, 0.4, 0.45000000000000007]",0.4333333333333334,,,,,,,,,,,,,,,,,051226cm,001,2026-05-12_14h08.53.923,priming,,2026.1.3,60.00282025225579,2026-05-12 14h08.54.540040 -0700,
,,,,,,,,,,,15,0.025,0.42500000000000004,,,,,127.35646345900022,,,,,,,127.34086533400114,128.3399300839992,0.575,0.42500000000000004,128.3433865420011,130.08988362500168,130.0917714999996,132.37388162500065,allgreen,green,0,1,0,1,9,"[0.45000000000000007, 0.4, 0.45000000000000007, 0.42500000000000004]",0.4312500000000001,,,,,,,,,,,,,,,,,051226cm,001,2026-05-12_14h08.53.923,priming,,2026.1.3,60.00282025225579,2026-05-12 14h08.54.540040 -0700,
,,,,,,,,,,,16,0.025,0.45000000000000007,,,,,132.3898799589988,,,,,,,132.37413495900182,133.37319695900078,0.5499999999999999,0.45000000000000007,133.37665500000003,135.12315179199868,135.12497579200135,137.79065345900017,allred,red,1,0,1,1,10,"[0.45000000000000007, 0.4, 0.45000000000000007, 0.42500000000000004, 0.45000000000000007]",0.43500000000000005,,,,,,,,,,,,,,,,,051226cm,001,2026-05-12_14h08.53.923,priming,,2026.1.3,60.00282025225579,2026-05-12 14h08.54.540040 -0700,
,,,,,,,,,,,17,0.025,0.42500000000000004,,,,,137.80637016699984,,,,,,,137.79092541700084,138.78990366699873,0.575,0.42500000000000004,138.79343041700122,140.53983679199882,140.5416738749991,141.34057991699956,mostlygreen,green,0,1,0,1,11,"[0.45000000000000007, 0.4, 0.45000000000000007, 0.42500000000000004, 0.45000000000000007, 0.42500000000000004]",0.4333333333333334,,,,,,,,,,,,,,,,,051226cm,001,2026-05-12_14h08.53.923,priming,,2026.1.3,60.00282025225579,2026-05-12 14h08.54.540040 -0700,
,,,,,,,,,,,18,0.025,0.45000000000000007,,,,,141.35640166699886,,,,,,,141.34087154200097,142.3399046250015,0.5499999999999999,0.45000000000000007,142.34335037500205,144.08993816699876,144.0913000420005,147.17398675000004,mostlyred,red,1,0,1,1,12,"[0.45000000000000007, 0.4, 0.45000000000000007, 0.42500000000000004, 0.45000000000000007, 0.42500000000000004, 0.45000000000000007]",0.43571428571428583,,,,,,,,,,,,,,,,,051226cm,001,2026-05-12_14h08.53.923,priming,,2026.1.3,60.00282025225579,2026-05-12 14h08.54.540040 -0700,
,,,,,,,,,,,19,0.025,0.42500000000000004,,,,,147.18979208400197,,,,,,,147.17425245900085,148.173094709,0.575,0.42500000000000004,148.1765977920004,149.92338200000086,149.92511829200157,151.94073837500036,mostlygreen,green,0,1,0,1,13,"[0.45000000000000007, 0.4, 0.45000000000000007, 0.42500000000000004, 0.45000000000000007, 0.42500000000000004, 0.45000000000000007, 0.42500000000000004]",0.43437500000000007,,,,,,,,,,,,,,,,,051226cm,001,2026-05-12_14h08.53.923,priming,,2026.1.3,60.00282025225579,2026-05-12 14h08.54.540040 -0700,
,,,,,,,,,,,20,0.025,0.45000000000000007,,,,,151.9566303749998,,,,,,,151.94099520899908,152.93991429200105,0.5499999999999999,0.45000000000000007,152.94340591700166,154.68997858399962,154.69127145899984,156.4072583340021,allred,red,1,0,1,1,14,"[0.45000000000000007, 0.4, 0.45000000000000007, 0.42500000000000004, 0.45000000000000007, 0.42500000000000004, 0.45000000000000007, 0.42500000000000004, 0.45000000000000007]",0.43611111111111117,,,,,,,,,,,,,,,,,051226cm,001,2026-05-12_14h08.53.923,priming,,2026.1.3,60.00282025225579,2026-05-12 14h08.54.540040 -0700,
,,,,,,,,,,,21,0.025,0.42500000000000004,,,,,156.42333074999988,,,,,,,156.40750791699975,157.40670683400094,0.575,0.42500000000000004,157.41021091700168,159.15674874999968,159.15816033400188,160.19068883400178,mostlygreen,green,0,1,0,1,15,"[0.45000000000000007, 0.4, 0.45000000000000007, 0.42500000000000004, 0.45000000000000007, 0.42500000000000004, 0.45000000000000007, 0.42500000000000004, 0.45000000000000007, 0.42500000000000004]",0.43500000000000005,,,,,,,,,,,,,,,,,051226cm,001,2026-05-12_14h08.53.923,priming,,2026.1.3,60.00282025225579,2026-05-12 14h08.54.540040 -0700,
,,,,,,,,,,,22,0.025,0.45000000000000007,,,,,160.2066022500003,,,,,,,160.19093887499912,161.18999058400004,0.5499999999999999,0.45000000000000007,161.19350900000063,162.9400272919993,162.94164558400007,164.1907080839992,mostlygreen,green,0,0,0,0,15,"[0.45000000000000007, 0.4, 0.45000000000000007, 0.42500000000000004, 0.45000000000000007, 0.42500000000000004, 0.45000000000000007, 0.42500000000000004, 0.45000000000000007, 0.42500000000000004]",0.43500000000000005,,,,,,,,,,,,,,,,,051226cm,001,2026-05-12_14h08.53.923,priming,,2026.1.3,60.00282025225579,2026-05-12 14h08.54.540040 -0700,
,,,,,,,,,,,23,0.025,0.4750000000000001,,,,,164.20662712500052,,,,,,,164.19101279200186,165.19000108399996,0.5249999999999999,0.4750000000000001,165.1933785000001,166.93999087500197,166.94182229199942,167.77398025000002,mostlyred,red,1,0,1,1,16,"[0.45000000000000007, 0.4, 0.45000000000000007, 0.42500000000000004, 0.45000000000000007, 0.42500000000000004, 0.45000000000000007, 0.42500000000000004, 0.45000000000000007, 0.42500000000000004, 0.4750000000000001]",0.4386363636363637,,,,,,,,,,,,,,,,,051226cm,001,2026-05-12_14h08.53.923,priming,,2026.1.3,60.00282025225579,2026-05-12 14h08.54.540040 -0700,
,,,,,,,,,,,24,0.025,0.45000000000000007,,,,,167.78994691700063,,,,,,,167.77423262500088,168.77335841700187,0.5499999999999999,0.45000000000000007,168.77684866699929,170.5233610840005,170.52547699999923,171.87407395899936,mostlyred,red,1,1,1,0,16,"[0.45000000000000007, 0.4, 0.45000000000000007, 0.42500000000000004, 0.45000000000000007, 0.42500000000000004, 0.45000000000000007, 0.42500000000000004, 0.45000000000000007, 0.42500000000000004, 0.4750000000000001]",0.4386363636363637,,,,,,,,,,,,,,,,,051226cm,001,2026-05-12_14h08.53.923,priming,,2026.1.3,60.00282025225579,2026-05-12 14h08.54.540040 -0700,
,,,,,,,,,,,25,0.025,0.42500000000000004,,,,,171.8899467500014,,,,,,,171.8743961250002,172.8733487089994,0.575,0.42500000000000004,172.87680654200085,174.62333279200175,174.6247989170006,180.99071800000092,mostlyred,red,1,1,1,0,16,"[0.45000000000000007, 0.4, 0.45000000000000007, 0.42500000000000004, 0.45000000000000007, 0.42500000000000004, 0.45000000000000007, 0.42500000000000004, 0.45000000000000007, 0.42500000000000004, 0.4750000000000001]",0.4386363636363637,,,,,,,,,,,,,,,,,051226cm,001,2026-05-12_14h08.53.923,priming,,2026.1.3,60.00282025225579,2026-05-12 14h08.54.540040 -0700,
,,,,,,,,,,,26,0.025,0.4,,,,,181.00675541700184,,,,,,,180.99096808399918,181.9900740000012,0.6,0.4,181.99351662499976,183.7400910840006,183.7416437920001,185.65736912500142,mostlygreen,green,0,1,0,1,17,"[0.45000000000000007, 0.4, 0.45000000000000007, 0.42500000000000004, 0.45000000000000007, 0.42500000000000004, 0.45000000000000007, 0.42500000000000004, 0.45000000000000007, 0.42500000000000004, 0.4750000000000001, 0.4]",0.4354166666666668,,,,,,,,,,,,,,,,,051226cm,001,2026-05-12_14h08.53.923,priming,,2026.1.3,60.00282025225579,2026-05-12 14h08.54.540040 -0700,
,,,,,,,,,,,27,0.025,0.42500000000000004,,,,,185.6732606250007,,,,,,,185.65765066699896,186.6567721249994,0.575,0.42500000000000004,186.66023645899986,188.406818792002,188.4087780000009,189.05752862499867,mostlygreen,green,0,0,0,0,17,"[0.45000000000000007, 0.4, 0.45000000000000007, 0.42500000000000004, 0.45000000000000007, 0.42500000000000004, 0.45000000000000007, 0.42500000000000004, 0.45000000000000007, 0.42500000000000004, 0.4750000000000001, 0.4]",0.4354166666666668,,,,,,,,,,,,,,,,,051226cm,001,2026-05-12_14h08.53.923,priming,,2026.1.3,60.00282025225579,2026-05-12 14h08.54.540040 -0700,
,,,,,,,,,,,28,0.025,0.45000000000000007,,,,,189.0734130000019,,,,,,,189.05778079200172,190.0568367090018,0.5499999999999999,0.45000000000000007,190.0603031669998,191.8068692500019,191.80885395899895,193.307540875001,mostlyred,red,1,0,1,1,18,"[0.45000000000000007, 0.4, 0.45000000000000007, 0.42500000000000004, 0.45000000000000007, 0.42500000000000004, 0.45000000000000007, 0.42500000000000004, 0.45000000000000007, 0.42500000000000004, 0.4750000000000001, 0.4, 0.45000000000000007]",0.43653846153846165,,,,,,,,,,,,,,,,,051226cm,001,2026-05-12_14h08.53.923,priming,,2026.1.3,60.00282025225579,2026-05-12 14h08.54.540040 -0700,
,,,,,,,,,,,29,0.025,0.42500000000000004,,,,,193.32341166699916,,,,,,,193.30779404200075,194.3067835840011,0.575,0.42500000000000004,194.3102803340007,196.056814167001,196.05856920899896,197.80745741699866,mostlyred,red,1,1,1,0,18,"[0.45000000000000007, 0.4, 0.45000000000000007, 0.42500000000000004, 0.45000000000000007, 0.42500000000000004, 0.45000000000000007, 0.42500000000000004, 0.45000000000000007, 0.42500000000000004, 0.4750000000000001, 0.4, 0.45000000000000007]",0.43653846153846165,,,,,,,,,,,,,,,,,051226cm,001,2026-05-12_14h08.53.923,priming,,2026.1.3,60.00282025225579,2026-05-12 14h08.54.540040 -0700,
,,,,,,,,,,,30,0.025,0.4,,,,,197.82334291699954,,,,,,,197.8077457920008,198.80682529200203,0.6,0.4,198.81028962500204,200.55680650000068,200.5585709170009,201.95770175000143,mostlygreen,green,0,1,0,1,19,"[0.45000000000000007, 0.4, 0.45000000000000007, 0.42500000000000004, 0.45000000000000007, 0.42500000000000004, 0.45000000000000007, 0.42500000000000004, 0.45000000000000007, 0.42500000000000004, 0.4750000000000001, 0.4, 0.45000000000000007, 0.4]",0.43392857142857155,,,,,,,,,,,,,,,,,051226cm,001,2026-05-12_14h08.53.923,priming,,2026.1.3,60.00282025225579,2026-05-12 14h08.54.540040 -0700,
,,,,,,,,,,,31,0.025,0.42500000000000004,,,,,201.97339166700112,,,,,,,201.95805645899964,202.95680962500046,0.575,0.42500000000000004,202.96035891700012,204.70681991699894,204.70852829200157,206.25751616699927,mostlyred,red,1,0,1,1,20,"[0.45000000000000007, 0.4, 0.45000000000000007, 0.42500000000000004, 0.45000000000000007, 0.42500000000000004, 0.45000000000000007, 0.42500000000000004, 0.45000000000000007, 0.42500000000000004, 0.4750000000000001, 0.4, 0.45000000000000007, 0.4, 0.42500000000000004]",0.43333333333333346,,,,,,,,,,,,,,,,,051226cm,001,2026-05-12_14h08.53.923,priming,,2026.1.3,60.00282025225579,2026-05-12 14h08.54.540040 -0700,
,,,,,,,,,,,32,0.025,0.4,,,,,206.27342637499896,,,,,,,206.25782479199916,207.2568040840015,0.6,0.4,207.2602819169988,209.00676008400114,209.00896325000213,209.90750383400155,mostlygreen,green,0,1,0,1,21,"[0.4, 0.45000000000000007, 0.42500000000000004, 0.45000000000000007, 0.42500000000000004, 0.45000000000000007, 0.42500000000000004, 0.45000000000000007, 0.42500000000000004, 0.4750000000000001, 0.4, 0.45000000000000007, 0.4, 0.42500000000000004, 0.4]",0.43000000000000005,,,,,,,,,,,,,,,,,051226cm,001,2026-05-12_14h08.53.923,priming,,2026.1.3,60.00282025225579,2026-05-12 14h08.54.540040 -0700,
,,,,,,,,,,,33,0.025,0.42500000000000004,,,,,209.9233790420003,,,,,,,209.90775987500092,210.9069234589988,0.575,0.42500000000000004,210.91036145900216,212.65681595899878,212.65822945900072,213.97412983400136,mostlyred,red,1,0,1,1,22,"[0.45000000000000007, 0.42500000000000004, 0.45000000000000007, 0.42500000000000004, 0.45000000000000007, 0.42500000000000004, 0.45000000000000007, 0.42500000000000004, 0.4750000000000001, 0.4, 0.45000000000000007, 0.4, 0.42500000000000004, 0.4, 0.42500000000000004]",0.4316666666666667,,,,,,,,,,,,,,,,,051226cm,001,2026-05-12_14h08.53.923,priming,,2026.1.3,60.00282025225579,2026-05-12 14h08.54.540040 -0700,
,,,,,,,,,,,34,0.025,0.4,,,,,213.99014629199883,,,,,,,213.97438033399885,214.97346124999967,0.6,0.4,214.97698983400187,216.72356887500064,216.72560375000103,217.6575061250005,allgreen,green,0,1,0,1,23,"[0.42500000000000004, 0.45000000000000007, 0.42500000000000004, 0.45000000000000007, 0.42500000000000004, 0.45000000000000007, 0.42500000000000004, 0.4750000000000001, 0.4, 0.45000000000000007, 0.4, 0.42500000000000004, 0.4, 0.42500000000000004, 0.4]",0.42833333333333345,,,,,,,,,,,,,,,,,051226cm,001,2026-05-12_14h08.53.923,priming,,2026.1.3,60.00282025225579,2026-05-12 14h08.54.540040 -0700,
,,,,,,,,,,,35,0.025,0.42500000000000004,,,,,217.67342820900012,,,,,,,217.65776537499914,218.6568280419997,0.575,0.42500000000000004,218.66029329199955,220.40676895900106,220.40872108400072,221.1408330000013,mostlygreen,green,0,0,0,0,23,"[0.42500000000000004, 0.45000000000000007, 0.42500000000000004, 0.45000000000000007, 0.42500000000000004, 0.45000000000000007, 0.42500000000000004, 0.4750000000000001, 0.4, 0.45000000000000007, 0.4, 0.42500000000000004, 0.4, 0.42500000000000004, 0.4]",0.42833333333333345,,,,,,,,,,,,,,,,,051226cm,001,2026-05-12_14h08.53.923,priming,,2026.1.3,60.00282025225579,2026-05-12 14h08.54.540040 -0700,
,,,,,,,,,,,36,0.025,0.45000000000000007,,,,,221.1567443749991,,,,,,,221.14109604199984,222.1401680420022,0.5499999999999999,0.45000000000000007,222.14368845900026,223.89021924999906,223.89206233400182,224.77425729199967,mostlygreen,green,0,0,0,0,23,"[0.42500000000000004, 0.45000000000000007, 0.42500000000000004, 0.45000000000000007, 0.42500000000000004, 0.45000000000000007, 0.42500000000000004, 0.4750000000000001, 0.4, 0.45000000000000007, 0.4, 0.42500000000000004, 0.4, 0.42500000000000004, 0.4]",0.42833333333333345,,,,,,,,,,,,,,,,,051226cm,001,2026-05-12_14h08.53.923,priming,,2026.1.3,60.00282025225579,2026-05-12 14h08.54.540040 -0700,
,,,,,,,,,,,37,0.025,0.4750000000000001,,,,,224.79024449999997,,,,,,,224.77450616699934,225.77356429200154,0.5249999999999999,0.4750000000000001,225.77701070900002,227.52358654199998,227.52501454199955,228.4410137920022,mostlyred,red,1,0,1,1,24,"[0.45000000000000007, 0.42500000000000004, 0.45000000000000007, 0.42500000000000004, 0.45000000000000007, 0.42500000000000004, 0.4750000000000001, 0.4, 0.45000000000000007, 0.4, 0.42500000000000004, 0.4, 0.42500000000000004, 0.4, 0.4750000000000001]",0.43166666666666675,,,,,,,,,,,,,,,,,051226cm,001,2026-05-12_14h08.53.923,priming,,2026.1.3,60.00282025225579,2026-05-12 14h08.54.540040 -0700,
,,,,,,,,,,,38,0.025,0.45000000000000007,,,,,228.45683958399968,,,,,,,228.44126566699924,229.4402507920022,0.5499999999999999,0.45000000000000007,229.44370479200006,231.19024470899967,231.19207112500226,232.05765604200133,mostlygreen,green,0,1,0,1,25,"[0.42500000000000004, 0.45000000000000007, 0.42500000000000004, 0.45000000000000007, 0.42500000000000004, 0.4750000000000001, 0.4, 0.45000000000000007, 0.4, 0.42500000000000004, 0.4, 0.42500000000000004, 0.4, 0.4750000000000001, 0.45000000000000007]",0.4316666666666668,,,,,,,,,,,,,,,,,051226cm,001,2026-05-12_14h08.53.923,priming,,2026.1.3,60.00282025225579,2026-05-12 14h08.54.540040 -0700,
,,,,,,,,,,,39,0.025,0.4750000000000001,,,,,232.07343066700196,,,,,,,232.05791341700024,233.0568298750004,0.5249999999999999,0.4750000000000001,233.06027504200028,234.80690250000043,234.80869945900122,237.07428787499884,mostlygreen,green,0,0,0,0,25,"[0.42500000000000004, 0.45000000000000007, 0.42500000000000004, 0.45000000000000007, 0.42500000000000004, 0.4750000000000001, 0.4, 0.45000000000000007, 0.4, 0.42500000000000004, 0.4, 0.42500000000000004, 0.4, 0.4750000000000001, 0.45000000000000007]",0.4316666666666668,,,,,,,,,,,,,,,,,051226cm,001,2026-05-12_14h08.53.923,priming,,2026.1.3,60.00282025225579,2026-05-12 14h08.54.540040 -0700,
,,,,,,,,,,,,,,,,,,,,,,space,53.53397154100094,None,,,,,,,,,,,,,,,,,,,,,,,,,,,,,,,,,,051226cm,001,2026-05-12_14h08.53.923,priming,,2026.1.3,60.00282025225579,2026-05-12 14h08.54.540040 -0700,
GR_Incongruent_GreenCue_RedProbe_Top,GreenGaborBoth.png,RedGaborBoth.png,GreenGaborBoth.png,RedGaborDisappearTop.png,Green.mp3,green,top,0,0,0,,,,0,0,0,46,290.70708925000145,,,,,,,,,,,,,,,,top,,,,,,,,290.68915554200066,292.35746216700136,292.35763891700117,297.60703791700143,297.61639829200067,298.85718779200033,298.85934287499913,303.07427587500206,303.0754257920016,305.57471400000213,allred,FinalRedContrast,FinalGreenContrast,305.5762223339989,309.4079912090019,2,051226cm,001,2026-05-12_14h08.53.923,priming,,2026.1.3,60.00282025225579,2026-05-12 14h08.54.540040 -0700,
GR_Incongruent_GreenCue_RedProbe_Bottom,GreenGaborBoth.png,RedGaborBoth.png,GreenGaborBoth.png,RedGaborDisappearBottom.png,Green.mp3,green,bottom,1,1,0,,,,0,1,1,55,309.4238195420003,,,,,,,,,,,,,,,,bottom,,,,,,,,309.40809529200124,353.27427974999955,353.274442083999,358.52406416699887,358.533240959001,359.77392150000014,359.77544837499954,361.8077222089996,361.80960604199936,363.6248208750003,mostlyred,FinalRedContrast,FinalGreenContrast,363.62578995900185,364.9747867090009,3,051226cm,001,2026-05-12_14h08.53.923,priming,,2026.1.3,60.00282025225579,2026-05-12 14h08.54.540040 -0700,
GR_Congruent_GreenCue_GreenProbe_Top,GreenGaborBoth.png,RedGaborBoth.png,GreenGaborDisappearTop.png,RedGaborBoth.png,Green.mp3,green,top,2,2,0,,,,0,2,2,50,364.99060233400087,,,,,,,,,,,,,,,,top,,,,,,,,364.9748899590013,366.5080530839987,366.5082457919998,371.7572857920022,371.76588529199944,373.00734433400066,373.00866179199875,374.95767904199965,374.9597199589989,377.7249428750001,mostlygreen,FinalRedContrast,FinalGreenContrast,377.7262335000014,381.2415765000005,4,051226cm,001,2026-05-12_14h08.53.923,priming,,2026.1.3,60.00282025225579,2026-05-12 14h08.54.540040 -0700,
GR_Incongruent_RedCue_GreenProbe_Bottom,GreenGaborBoth.png,RedGaborBoth.png,GreenGaborDisappearBottom.png,RedGaborBoth.png,Red.mp3,red,bottom,3,3,0,,,,0,3,3,21,381.2572468750004,,,,,,,,,,,,,,,,bottom,,,,,,,,381.243398417002,382.8911231250022,382.8912894169989,388.1408012920001,388.148768209001,389.3907775000007,389.3922997920017,390.49118649999946,390.49229616700177,392.69191062499885,mostlygreen,FinalRedContrast,FinalGreenContrast,392.69233366700064,395.84161587500057,3,051226cm,001,2026-05-12_14h08.53.923,priming,,2026.1.3,60.00282025225579,2026-05-12 14h08.54.540040 -0700,
GR_Incongruent_RedCue_GreenProbe_Bottom,GreenGaborBoth.png,RedGaborBoth.png,GreenGaborDisappearBottom.png,RedGaborBoth.png,Red.mp3,red,bottom,4,4,0,,,,0,4,4,45,395.8574370839997,,,,,,,,,,,,,,,,bottom,,,,,,,,395.84171575000073,396.9577826249988,396.9579525420013,402.2074772090018,402.21376545900057,403.45750662499995,403.4589269169992,404.8578640000014,404.8591379589998,407.05830258399874,allred,FinalRedContrast,FinalGreenContrast,407.05957325000054,409.04165508400183,4,051226cm,001,2026-05-12_14h08.53.923,priming,,2026.1.3,60.00282025225579,2026-05-12 14h08.54.540040 -0700,
GR_Congruent_RedCue_RedProbe_Bottom,GreenGaborBoth.png,RedGaborBoth.png,GreenGaborBoth.png,RedGaborDisappearBottom.png,Red.mp3,red,bottom,5,5,0,,,,0,5,5,49,409.0573668750003,,,,,,,,,,,,,,,,bottom,,,,,,,,409.0417539170012,410.07443050000074,410.07459649999873,415.3241510000007,415.33045716700144,416.5743062090005,416.57600258399907,418.6745721670013,418.6764342089991,423.1750829590019,mostlyred,FinalRedContrast,FinalGreenContrast,423.17636058399876,424.8084443750013,4,051226cm,001,2026-05-12_14h08.53.923,priming,,2026.1.3,60.00282025225579,2026-05-12 14h08.54.540040 -0700,
GR_Congruent_GreenCue_GreenProbe_Bottom,GreenGaborBoth.png,RedGaborBoth.png,GreenGaborDisappearBottom.png,RedGaborBoth.png,Green.mp3,green,bottom,6,6,0,,,,0,6,6,59,424.8242107090009,,,,,,,,,,,,,,,,bottom,,,,,,,,424.810345959002,425.8746597919999,425.87483595899903,431.12423862500145,431.1306010420012,432.3742369169995,432.37587641700156,433.7746924589992,433.7761070839988,435.09209812500194,mostlyred,FinalRedContrast,FinalGreenContrast,435.0924315420016,437.0250863750007,3,051226cm,001,2026-05-12_14h08.53.923,priming,,2026.1.3,60.00282025225579,2026-05-12 14h08.54.540040 -0700,
GR_Incongruent_RedCue_GreenProbe_Top,GreenGaborBoth.png,RedGaborBoth.png,GreenGaborDisappearTop.png,RedGaborBoth.png,Red.mp3,red,top,7,7,0,,,,0,7,7,20,437.04090704199916,,,,,,,,,,,,,,,,top,,,,,,,,437.0267252090016,438.1578425000007,438.15800558400224,443.40769654199903,443.4152015840009,444.65758916699997,444.65964924999935,447.4581025840016,447.45977558400045,449.6754724169987,evensplit,FinalRedContrast,FinalGreenContrast,449.6759067089988,452.60839187500096,3,051226cm,001,2026-05-12_14h08.53.923,priming,,2026.1.3,60.00282025225579,2026-05-12 14h08.54.540040 -0700,
GR_Congruent_RedCue_RedProbe_Bottom,GreenGaborBoth.png,RedGaborBoth.png,GreenGaborBoth.png,RedGaborDisappearBottom.png,Red.mp3,red,bottom,8,8,0,,,,0,8,8,17,452.62422499999957,,,,,,,,,,,,,,,,bottom,,,,,,,,452.60850129200116,459.17466620900086,459.17483379199984,464.4244559590006,464.43091812499915,465.6743758750017,465.6756540419992,466.3415034589998,466.3430263340015,468.54191962500045,mostlygreen,FinalRedContrast,FinalGreenContrast,468.54257095900175,473.94188204199963,4,051226cm,001,2026-05-12_14h08.53.923,priming,,2026.1.3,60.00282025225579,2026-05-12 14h08.54.540040 -0700,
GR_Incongruent_GreenCue_RedProbe_Bottom,GreenGaborBoth.png,RedGaborBoth.png,GreenGaborBoth.png,RedGaborDisappearBottom.png,Green.mp3,green,bottom,9,9,0,,,,0,9,9,47,473.95773320900116,,,,,,,,,,,,,,,,top,,,,,,,,473.9438454170013,475.34135287499885,475.34152004200223,480.5910581249991,480.5974388750001,481.841114709001,481.84262212500107,485.3581296250013,485.35974312500184,486.8751845420011,evensplit,FinalRedContrast,FinalGreenContrast,486.87635920899993,489.6584854169996,4,051226cm,001,2026-05-12_14h08.53.923,priming,,2026.1.3,60.00282025225579,2026-05-12 14h08.54.540040 -0700,
GR_Congruent_RedCue_RedProbe_Top,GreenGaborBoth.png,RedGaborBoth.png,GreenGaborBoth.png,RedGaborDisappearTop.png,Red.mp3,red,top,10,10,0,,,,0,10,10,64,489.6743611250022,,,,,,,,,,,,,,,,top,,,,,,,,489.66011054200135,490.4580393750002,490.458207959,495.70770129200173,495.71522204199937,496.95786529199904,496.9594642500015,499.1748847919989,499.17649016699943,500.79204579200086,evensplit,FinalRedContrast,FinalGreenContrast,500.79320675000054,503.2087100839999,4,051226cm,001,2026-05-12_14h08.53.923,priming,,2026.1.3,60.00282025225579,2026-05-12 14h08.54.540040 -0700,
GR_Incongruent_RedCue_GreenProbe_Top,GreenGaborBoth.png,RedGaborBoth.png,GreenGaborDisappearTop.png,RedGaborBoth.png,Red.mp3,red,top,11,11,0,,,,0,11,11,4,503.2244063340004,,,,,,,,,,,,,,,,top,,,,,,,,503.20881004200055,505.0752109999994,505.07539974999963,510.32450195899946,510.33194483400075,511.5746020840015,511.5762466670021,513.2249262090008,513.2266238340017,514.8585869589988,mostlygreen,FinalRedContrast,FinalGreenContrast,514.8593317920022,517.275385500001,4,051226cm,001,2026-05-12_14h08.53.923,priming,,2026.1.3,60.00282025225579,2026-05-12 14h08.54.540040 -0700,
GR_Congruent_GreenCue_GreenProbe_Bottom,GreenGaborBoth.png,RedGaborBoth.png,GreenGaborDisappearBottom.png,RedGaborBoth.png,Green.mp3,green,bottom,12,12,0,,,,0,12,12,3,517.2910812090013,,,,,,,,,,,,,,,,bottom,,,,,,,,517.2773931670017,518.0414738750005,518.0416396670007,523.2911396669988,523.2975992499996,524.5412621670002,524.5428059590013,525.7416750000011,525.7427781250008,527.4757043339996,mostlygreen,FinalRedContrast,FinalGreenContrast,527.4760366670016,528.5254361670013,5,051226cm,001,2026-05-12_14h08.53.923,priming,,2026.1.3,60.00282025225579,2026-05-12 14h08.54.540040 -0700,
GR_Congruent_RedCue_RedProbe_Bottom,GreenGaborBoth.png,RedGaborBoth.png,GreenGaborBoth.png,RedGaborDisappearBottom.png,Red.mp3,red,bottom,13,13,0,,,,0,13,13,41,528.5411599170002,,,,,,,,,,,,,,,,bottom,,,,,,,,528.5270364999997,530.1581224170004,530.1582889170022,535.4077985000004,535.4142280420019,536.6580511669999,536.6596841249993,537.7583472090009,537.7602064999992,542.9588023340002,mostlyred,FinalRedContrast,FinalGreenContrast,542.9601847920021,545.3588443340013,4,051226cm,001,2026-05-12_14h08.53.923,priming,,2026.1.3,60.00282025225579,2026-05-12 14h08.54.540040 -0700,
RR_non_riv_catch_RedCue_RedProbe_Top,Blank.png,RedGaborBoth.png,Blank.png,RedGaborDisappearTop.png,Red.mp3,red,top,14,14,0,,,,0,14,14,72,545.3745188339999,,,,,,,,,,,,,,,,top,,,,,,,,545.3589922499996,546.8082382089997,546.8084042920018,552.0579391669999,552.0658624999996,553.3080211670022,553.3093459170013,554.2917796670008,554.2927384590002,556.1754775000009,allred,FinalRedContrast,FinalGreenContrast,556.1766951249992,558.925486084001,4,051226cm,001,2026-05-12_14h08.53.923,priming,,2026.1.3,60.00282025225579,2026-05-12 14h08.54.540040 -0700,
GR_Congruent_GreenCue_GreenProbe_Bottom,GreenGaborBoth.png,RedGaborBoth.png,GreenGaborDisappearBottom.png,RedGaborBoth.png,Green.mp3,green,bottom,15,15,0,,,,0,15,15,67,558.9412822090017,,,,,,,,,,,,,,,,top,,,,,,,,558.9274251669995,564.8415745419989,564.8417372500007,570.0912737920007,570.0976859170005,571.3412256250012,571.3434591250007,572.8417077500017,572.8435938750008,575.4255755840022,allgreen,FinalRedContrast,FinalGreenContrast,575.426383375001,576.7921069590011,5,051226cm,001,2026-05-12_14h08.53.923,priming,,2026.1.3,60.00282025225579,2026-05-12 14h08.54.540040 -0700,
GR_Congruent_GreenCue_GreenProbe_Bottom,GreenGaborBoth.png,RedGaborBoth.png,GreenGaborDisappearBottom.png,RedGaborBoth.png,Green.mp3,green,bottom,16,16,0,,,,0,16,16,51,576.807857374999,,,,,,,,,,,,,,,,bottom,,,,,,,,576.7922067500003,578.0084258749994,578.0085882089988,583.2580708339992,583.2644767919992,584.5081145420008,584.509807041999,586.8584986249989,586.8599400419989,589.2089420000011,allgreen,FinalRedContrast,FinalGreenContrast,589.2102625420011,590.7422295420001,4,051226cm,001,2026-05-12_14h08.53.923,priming,,2026.1.3,60.00282025225579,2026-05-12 14h08.54.540040 -0700,
GG_non_riv_catch_RedCue_GreenProbe_Bottom,GreenGaborBoth.png,Blank.png,GreenGaborDisappearBottom.png,Blank.png,Red.mp3,red,bottom,17,17,0,,,,0,17,17,77,590.7580113750009,,,,,,,,,,,,,,,,bottom,,,,,,,,590.7438454170006,592.0084054170002,592.0085654169998,597.2581520000022,597.2634903340004,598.5081237920022,598.5097626669994,600.8918057920018,600.8930706669998,602.6593202500007,allgreen,FinalRedContrast,FinalGreenContrast,602.6597890840021,604.4756547920006,2,051226cm,001,2026-05-12_14h08.53.923,priming,,2026.1.3,60.00282025225579,2026-05-12 14h08.54.540040 -0700,
GR_Congruent_GreenCue_GreenProbe_Top,GreenGaborBoth.png,RedGaborBoth.png,GreenGaborDisappearTop.png,RedGaborBoth.png,Green.mp3,green,top,18,18,0,,,,0,18,18,10,604.4913677920013,,,,,,,,,,,,,,,,top,,,,,,,,604.4775289999998,617.8083474590021,617.8085127920021,623.0582502920006,623.0661372499999,624.308204334,624.3096237499994,625.2919637090017,625.2936394169992,627.3923405419991,mostlygreen,FinalRedContrast,FinalGreenContrast,627.3936459590004,629.2924190000012,4,051226cm,001,2026-05-12_14h08.53.923,priming,,2026.1.3,60.00282025225579,2026-05-12 14h08.54.540040 -0700,
GR_Congruent_GreenCue_GreenProbe_Bottom,GreenGaborBoth.png,RedGaborBoth.png,GreenGaborDisappearBottom.png,RedGaborBoth.png,Green.mp3,green,bottom,19,19,0,,,,0,19,19,27,629.3081323340011,,,,,,,,,,,,,,,,bottom,,,,,,,,629.2925496249991,629.908508667002,629.9086692090023,635.1582105000016,635.1646279170018,636.4082138750018,636.4097003339994,639.0586683340007,639.0605092500009,640.6590037919996,mostlygreen,FinalRedContrast,FinalGreenContrast,640.6603332920022,642.3424594999997,3,051226cm,001,2026-05-12_14h08.53.923,priming,,2026.1.3,60.00282025225579,2026-05-12 14h08.54.540040 -0700,
GR_Congruent_RedCue_RedProbe_Bottom,GreenGaborBoth.png,RedGaborBoth.png,GreenGaborBoth.png,RedGaborDisappearBottom.png,Red.mp3,red,bottom,20,20,0,,,,0,20,20,57,642.3581300000005,,,,,,,,,,,,,,,,bottom,,,,,,,,642.3440776669995,643.0752549999997,643.0754188339997,648.3248656249998,648.3311594170009,649.5749888749997,649.5763707920014,651.8420042090002,651.8436645000002,654.825821041999,mostlyred,FinalRedContrast,FinalGreenContrast,654.8265871250005,662.5425529999993,4,051226cm,001,2026-05-12_14h08.53.923,priming,,2026.1.3,60.00282025225579,2026-05-12 14h08.54.540040 -0700,
GR_Incongruent_GreenCue_RedProbe_Top,GreenGaborBoth.png,RedGaborBoth.png,GreenGaborBoth.png,RedGaborDisappearTop.png,Green.mp3,green,top,21,21,0,,,,0,21,21,62,662.5582942500005,,,,,,,,,,,,,,,,top,,,,,,,,662.5444348749988,663.1753469169998,663.1755131249993,668.4249918749993,668.4314354999988,669.674999625,669.6763795000006,671.225405084002,671.226622541999,672.2258586669996,evensplit,FinalRedContrast,FinalGreenContrast,672.2271354170007,674.1591780420022,3,051226cm,001,2026-05-12_14h08.53.923,priming,,2026.1.3,60.00282025225579,2026-05-12 14h08.54.540040 -0700,
GR_Incongruent_GreenCue_RedProbe_Top,GreenGaborBoth.png,RedGaborBoth.png,GreenGaborBoth.png,RedGaborDisappearTop.png,Green.mp3,green,top,22,22,0,,,,0,22,22,6,674.174964959002,,,,,,,,,,,,,,,,bottom,,,,,,,,674.159278334002,676.2085345000014,676.2086982920009,681.458262125001,681.4647022089994,682.708366875002,682.7100930000015,684.1086944999988,684.109733917001,685.8593350420015,allgreen,FinalRedContrast,FinalGreenContrast,685.8603394170023,688.0925261670018,2,051226cm,001,2026-05-12_14h08.53.923,priming,,2026.1.3,60.00282025225579,2026-05-12 14h08.54.540040 -0700,
GG_non_riv_catch_RedCue_GreenProbe_Top,GreenGaborBoth.png,Blank.png,GreenGaborDisappearTop.png,Blank.png,Red.mp3,red,top,23,23,0,,,,0,23,23,76,688.1082038339991,,,,,,,,,,,,,,,,top,,,,,,,,688.094163624999,689.29200175,689.2921669589996,694.541659999999,694.5485957090023,695.7918487499992,695.7936013340004,696.425332750001,696.4264840420001,697.8758748750006,allgreen,FinalRedContrast,FinalGreenContrast,697.8769903339999,700.8425049590005,3,051226cm,001,2026-05-12_14h08.53.923,priming,,2026.1.3,60.00282025225579,2026-05-12 14h08.54.540040 -0700,
GR_Congruent_RedCue_RedProbe_Top,GreenGaborBoth.png,RedGaborBoth.png,GreenGaborBoth.png,RedGaborDisappearTop.png,Red.mp3,red,top,24,24,0,,,,0,24,24,48,700.8582947499999,,,,,,,,,,,,,,,,top,,,,,,,,700.8426048340007,716.5087702919991,716.5089332089992,721.7585202090013,721.7650698750003,723.0084997090016,723.0099590419995,724.0923696669997,724.0932736249997,729.6092992090016,mostlyred,FinalRedContrast,FinalGreenContrast,729.6103124590009,731.4430655840006,3,051226cm,001,2026-05-12_14h08.53.923,priming,,2026.1.3,60.00282025225579,2026-05-12 14h08.54.540040 -0700,
GR_Congruent_GreenCue_GreenProbe_Top,GreenGaborBoth.png,RedGaborBoth.png,GreenGaborDisappearTop.png,RedGaborBoth.png,Green.mp3,green,top,25,25,0,,,,0,25,25,34,731.4583936669987,,,,,,,,,,,,,,,,top,,,,,,,,731.4448298749994,732.142019750001,732.1421863340001,737.3917909170013,737.3994347920016,738.6419422500003,738.6435332920009,739.2588369170007,739.2609205000008,742.2430167089988,evensplit,FinalRedContrast,FinalGreenContrast,742.2435805419991,743.5093817500019,4,051226cm,001,2026-05-12_14h08.53.923,priming,,2026.1.3,60.00282025225579,2026-05-12 14h08.54.540040 -0700,
RR_non_riv_catch_GreenCue_RedProbe_Top,Blank.png,RedGaborBoth.png,Blank.png,RedGaborDisappearTop.png,Green.mp3,green,top,26,26,0,,,,0,26,26,74,743.5250880000021,,,,,,,,,,,,,,,,bottom,,,,,,,,743.5095027089992,744.275509334002,744.2756717500015,749.5252482920005,749.5308138340006,750.7752815000022,750.776891542002,753.0424129589992,753.0442585000019,755.1261540420019,evensplit,FinalRedContrast,FinalGreenContrast,755.1274294169998,758.4596402919997,3,051226cm,001,2026-05-12_14h08.53.923,priming,,2026.1.3,60.00282025225579,2026-05-12 14h08.54.540040 -0700,
GR_Congruent_RedCue_RedProbe_Top,GreenGaborBoth.png,RedGaborBoth.png,GreenGaborBoth.png,RedGaborDisappearTop.png,Red.mp3,red,top,27,27,0,,,,0,27,27,8,758.4752219590009,,,,,,,,,,,,,,,,top,,,,,,,,758.4612160840006,760.6422676250004,760.6424344170009,765.8918458750013,765.8982727090006,767.1423590000013,767.1437487500007,768.0589556250015,768.060471249999,769.1928407920022,mostlyred,FinalRedContrast,FinalGreenContrast,769.194177166999,770.8761093339999,4,051226cm,001,2026-05-12_14h08.53.923,priming,,2026.1.3,60.00282025225579,2026-05-12 14h08.54.540040 -0700,
GR_Incongruent_GreenCue_RedProbe_Bottom,GreenGaborBoth.png,RedGaborBoth.png,GreenGaborBoth.png,RedGaborDisappearBottom.png,Green.mp3,green,bottom,28,28,0,,,,0,28,28,7,770.8920190419994,,,,,,,,,,,,,,,,bottom,,,,,,,,770.8779935419989,771.7422719589995,771.7424391669992,776.9919676669997,776.9996182920004,778.241962791999,778.2438582920004,779.0757094170003,779.0768300839991,780.3261662920013,evensplit,FinalRedContrast,FinalGreenContrast,780.3269479170012,781.2261042089995,3,051226cm,001,2026-05-12_14h08.53.923,priming,,2026.1.3,60.00282025225579,2026-05-12 14h08.54.540040 -0700,
GR_Incongruent_GreenCue_RedProbe_Top,GreenGaborBoth.png,RedGaborBoth.png,GreenGaborBoth.png,RedGaborDisappearTop.png,Green.mp3,green,top,29,29,0,,,,0,29,29,22,781.2418691669991,,,,,,,,,,,,,,,,top,,,,,,,,781.2262021669994,782.8088997920022,782.8090682500006,788.058757458999,788.0662983750008,789.3087578340019,789.3106694589987,791.7258399169987,791.7279220419987,793.826209625,mostlyred,FinalRedContrast,FinalGreenContrast,793.8273572920007,800.0930872919998,3,051226cm,001,2026-05-12_14h08.53.923,priming,,2026.1.3,60.00282025225579,2026-05-12 14h08.54.540040 -0700,
GR_Incongruent_RedCue_GreenProbe_Top,GreenGaborBoth.png,RedGaborBoth.png,GreenGaborDisappearTop.png,RedGaborBoth.png,Red.mp3,red,top,30,30,0,,,,0,30,30,12,800.1086480840022,,,,,,,,,,,,,,,,bottom,,,,,,,,800.0946934169988,807.7590097089997,807.759171583999,813.0087053339994,813.0175005000019,814.258740792,814.2608209589998,816.1758121669991,816.1773834170017,819.4596312499998,allred,FinalRedContrast,FinalGreenContrast,819.4601583750009,821.826279208999,4,051226cm,001,2026-05-12_14h08.53.923,priming,,2026.1.3,60.00282025225579,2026-05-12 14h08.54.540040 -0700,
GR_Incongruent_GreenCue_RedProbe_Bottom,GreenGaborBoth.png,RedGaborBoth.png,GreenGaborBoth.png,RedGaborDisappearBottom.png,Green.mp3,green,bottom,31,31,0,,,,0,31,31,31,821.8420299169993,,,,,,,,,,,,,,,,bottom,,,,,,,,821.8280919169993,822.8261555419995,822.8263464170013,828.0754260419999,828.0829515000005,829.3254519590009,829.3268405420022,831.2758952090007,831.2775152089998,832.4263944170016,evensplit,FinalRedContrast,FinalGreenContrast,832.4268005840022,833.9763322090002,3,051226cm,001,2026-05-12_14h08.53.923,priming,,2026.1.3,60.00282025225579,2026-05-12 14h08.54.540040 -0700,
GR_Incongruent_RedCue_GreenProbe_Top,GreenGaborBoth.png,RedGaborBoth.png,GreenGaborDisappearTop.png,RedGaborBoth.png,Red.mp3,red,top,32,32,0,,,,0,32,32,52,833.9921546250007,,,,,,,,,,,,,,,,top,,,,,,,,833.977952792,834.7591221250004,834.7592848339991,840.0088800420017,840.0152871669998,841.2589554170008,841.2607591250016,841.809254333999,841.8108117090014,843.2930159169991,evensplit,FinalRedContrast,FinalGreenContrast,843.2942495419993,850.8096844169995,3,051226cm,001,2026-05-12_14h08.53.923,priming,,2026.1.3,60.00282025225579,2026-05-12 14h08.54.540040 -0700,
GR_Incongruent_GreenCue_RedProbe_Bottom,GreenGaborBoth.png,RedGaborBoth.png,GreenGaborBoth.png,RedGaborDisappearBottom.png,Green.mp3,green,bottom,33,33,0,,,,0,33,33,15,850.8254261250004,,,,,,,,,,,,,,,,bottom,,,,,,,,850.8116725420005,851.5091934590018,851.5093564589988,856.7588328339989,856.7671441250022,858.0088125420007,858.0109363750016,858.8430691670001,858.8438178750002,862.7596171250007,mostlyred,FinalRedContrast,FinalGreenContrast,862.760407042002,864.2597812089989,3,051226cm,001,2026-05-12_14h08.53.923,priming,,2026.1.3,60.00282025225579,2026-05-12 14h08.54.540040 -0700,
GR_Incongruent_RedCue_GreenProbe_Bottom,GreenGaborBoth.png,RedGaborBoth.png,GreenGaborDisappearBottom.png,RedGaborBoth.png,Red.mp3,red,bottom,34,34,0,,,,0,34,34,29,864.2754109999987,,,,,,,,,,,,,,,,bottom,,,,,,,,864.2617405419987,864.942881084,864.9430687499989,870.1924290839997,870.2018774169992,871.4423800840013,871.4436615000013,872.376109208999,872.3774103340002,874.0101661670014,mostlygreen,FinalRedContrast,FinalGreenContrast,874.0105795839991,875.6437272500007,4,051226cm,001,2026-05-12_14h08.53.923,priming,,2026.1.3,60.00282025225579,2026-05-12 14h08.54.540040 -0700,
GG_non_riv_catch_GreenCue_GreenProbe_Bottom,GreenGaborBoth.png,Blank.png,GreenGaborDisappearBottom.png,Blank.png,Green.mp3,green,bottom,35,35,0,,,,0,35,35,79,875.6588062090013,,,,,,,,,,,,,,,,bottom,,,,,,,,875.6460199590001,876.9924324999993,876.9925942090013,882.2423530420019,882.2489106249996,883.4923357500011,883.493612541999,884.2429400000001,884.243415459001,885.1931872919995,allgreen,FinalRedContrast,FinalGreenContrast,885.193939249999,886.6431243750012,3,051226cm,001,2026-05-12_14h08.53.923,priming,,2026.1.3,60.00282025225579,2026-05-12 14h08.54.540040 -0700,
RR_non_riv_catch_GreenCue_RedProbe_Bottom,Blank.png,RedGaborBoth.png,Blank.png,RedGaborDisappearBottom.png,Green.mp3,green,bottom,36,36,0,,,,0,36,36,75,886.658944584,,,,,,,,,,,,,,,,bottom,,,,,,,,886.6432749170017,894.3092561670019,894.3094202920001,899.5590002089994,899.5659381250007,900.8090087500022,900.8109166670001,902.1426724170014,902.1443300840001,903.5764540000018,allred,FinalRedContrast,FinalGreenContrast,903.5777405420013,908.4264542090023,2,051226cm,001,2026-05-12_14h08.53.923,priming,,2026.1.3,60.00282025225579,2026-05-12 14h08.54.540040 -0700,
GR_Congruent_GreenCue_GreenProbe_Top,GreenGaborBoth.png,RedGaborBoth.png,GreenGaborDisappearTop.png,RedGaborBoth.png,Green.mp3,green,top,37,37,0,,,,0,37,37,18,908.4421894590014,,,,,,,,,,,,,,,,top,,,,,,,,908.4265517499989,911.5760298749992,911.5761992090011,916.8255935839989,916.8331439169997,918.0756036250023,918.0774916670016,918.9426751249994,918.9446496669989,924.976439334001,mostlygreen,FinalRedContrast,FinalGreenContrast,924.9777373340003,927.5098483750007,3,051226cm,001,2026-05-12_14h08.53.923,priming,,2026.1.3,60.00282025225579,2026-05-12 14h08.54.540040 -0700,
GR_Congruent_RedCue_RedProbe_Bottom,GreenGaborBoth.png,RedGaborBoth.png,GreenGaborBoth.png,RedGaborDisappearBottom.png,Red.mp3,red,bottom,38,38,0,,,,0,38,38,25,927.5256065419999,,,,,,,,,,,,,,,,bottom,,,,,,,,927.5114900840017,928.8759414590022,928.876106959,934.1256830419989,934.1320271250006,935.3758398339996,935.3774892500005,936.942775042,936.9445987500003,939.3599501249992,mostlygreen,FinalRedContrast,FinalGreenContrast,939.3613111250015,940.65990925,4,051226cm,001,2026-05-12_14h08.53.923,priming,,2026.1.3,60.00282025225579,2026-05-12 14h08.54.540040 -0700,
GR_Incongruent_RedCue_GreenProbe_Top,GreenGaborBoth.png,RedGaborBoth.png,GreenGaborDisappearTop.png,RedGaborBoth.png,Red.mp3,red,top,39,39,0,,,,0,39,39,60,940.6757347089988,,,,,,,,,,,,,,,,bottom,,,,,,,,940.6600067500003,941.392791000002,941.3929547920015,946.6423642500013,946.6488345420003,947.8924073340022,947.8945217090004,949.0761907090018,949.0777566670004,950.6101019999987,evensplit,FinalRedContrast,FinalGreenContrast,950.610401083999,952.3432517090005,1,051226cm,001,2026-05-12_14h08.53.923,priming,,2026.1.3,60.00282025225579,2026-05-12 14h08.54.540040 -0700,
GR_Incongruent_RedCue_GreenProbe_Top,GreenGaborBoth.png,RedGaborBoth.png,GreenGaborDisappearTop.png,RedGaborBoth.png,Red.mp3,red,top,40,40,0,,,,0,40,40,28,952.359116167001,,,,,,,,,,,,,,,,top,,,,,,,,952.3433852919989,957.4927040000002,957.4928728340019,962.7423849590014,962.7487870000004,963.9924757500012,963.9939125419987,964.542804708999,964.5445268340009,967.6265311669995,mostlygreen,FinalRedContrast,FinalGreenContrast,967.6277860000009,971.0265250000011,3,051226cm,001,2026-05-12_14h08.53.923,priming,,2026.1.3,60.00282025225579,2026-05-12 14h08.54.540040 -0700,
GR_Congruent_RedCue_RedProbe_Bottom,GreenGaborBoth.png,RedGaborBoth.png,GreenGaborBoth.png,RedGaborDisappearBottom.png,Red.mp3,red,bottom,41,41,0,,,,0,41,41,33,971.042438667002,,,,,,,,,,,,,,,,top,,,,,,,,971.0266215420015,972.2594616669994,972.2596266250002,977.5091547920019,977.5155040419995,978.7593173749992,978.7610785840006,982.0762518750016,982.0779794590017,983.4766809169996,mostlygreen,FinalRedContrast,FinalGreenContrast,983.4780118750023,985.0601186669992,2,051226cm,001,2026-05-12_14h08.53.923,priming,,2026.1.3,60.00282025225579,2026-05-12 14h08.54.540040 -0700,
GR_Congruent_GreenCue_GreenProbe_Top,GreenGaborBoth.png,RedGaborBoth.png,GreenGaborDisappearTop.png,RedGaborBoth.png,Green.mp3,green,top,42,42,0,,,,0,42,42,42,985.075872292,,,,,,,,,,,,,,,,top,,,,,,,,985.0619717500012,993.909528791999,993.9096960419993,999.1592150420001,999.1656046669996,1000.4092348340018,1000.4112427920008,1000.9929353340012,1000.9948016669987,1003.0933300420002,mostlygreen,FinalRedContrast,FinalGreenContrast,1003.0943635000003,1004.5101002090014,3,051226cm,001,2026-05-12_14h08.53.923,priming,,2026.1.3,60.00282025225579,2026-05-12 14h08.54.540040 -0700,
GR_Incongruent_GreenCue_RedProbe_Top,GreenGaborBoth.png,RedGaborBoth.png,GreenGaborBoth.png,RedGaborDisappearTop.png,Green.mp3,green,top,43,43,0,,,,0,43,43,70,1004.5259158750014,,,,,,,,,,,,,,,,top,,,,,,,,1004.5101977500017,1005.1762200840021,1005.1763841669999,1010.4259074590009,1010.4333338340002,1011.6759382500022,1011.677250708999,1012.9765302090018,1012.9775593750019,1015.7099982920008,mostlygreen,FinalRedContrast,FinalGreenContrast,1015.7116033339989,1016.7267542920017,2,051226cm,001,2026-05-12_14h08.53.923,priming,,2026.1.3,60.00282025225579,2026-05-12 14h08.54.540040 -0700,
GR_Congruent_RedCue_RedProbe_Top,GreenGaborBoth.png,RedGaborBoth.png,GreenGaborBoth.png,RedGaborDisappearTop.png,Red.mp3,red,top,44,44,0,,,,0,44,44,0,1016.742441792001,,,,,,,,,,,,,,,,top,,,,,,,,1016.7283990840006,1017.6429764999993,1017.6431411250014,1022.8925408750001,1022.8988923750003,1024.1424953339992,1024.144357000001,1024.676352041999,1024.6780619170022,1026.1101650839992,mostlygreen,FinalRedContrast,FinalGreenContrast,1026.111208667,1028.4935387090009,4,051226cm,001,2026-05-12_14h08.53.923,priming,,2026.1.3,60.00282025225579,2026-05-12 14h08.54.540040 -0700,
GR_Congruent_RedCue_RedProbe_Top,GreenGaborBoth.png,RedGaborBoth.png,GreenGaborBoth.png,RedGaborDisappearTop.png,Red.mp3,red,top,45,45,0,,,,0,45,45,56,1028.509333083999,,,,,,,,,,,,,,,,top,,,,,,,,1028.4936339590022,1029.3429291249995,1029.3430928750022,1034.5926419999996,1034.5988871670015,1035.8427287090017,1035.844028667001,1037.2430170420012,1037.2447765420002,1038.1268239170022,evensplit,FinalRedContrast,FinalGreenContrast,1038.1281099590014,1040.5771232920015,3,051226cm,001,2026-05-12_14h08.53.923,priming,,2026.1.3,60.00282025225579,2026-05-12 14h08.54.540040 -0700,
GR_Congruent_RedCue_RedProbe_Top,GreenGaborBoth.png,RedGaborBoth.png,GreenGaborBoth.png,RedGaborDisappearTop.png,Red.mp3,red,top,46,46,0,,,,0,46,46,16,1040.592582917001,,,,,,,,,,,,,,,,top,,,,,,,,1040.5772258750003,1042.1929847089996,1042.1931476669997,1047.4426916250013,1047.449033208999,1048.6926151250009,1048.6942382919988,1049.3431073339998,1049.3448476250014,1051.2434626670001,evensplit,FinalRedContrast,FinalGreenContrast,1051.2443397089992,1055.2768053750005,2,051226cm,001,2026-05-12_14h08.53.923,priming,,2026.1.3,60.00282025225579,2026-05-12 14h08.54.540040 -0700,
GR_Congruent_GreenCue_GreenProbe_Bottom,GreenGaborBoth.png,RedGaborBoth.png,GreenGaborDisappearBottom.png,RedGaborBoth.png,Green.mp3,green,bottom,47,47,0,,,,0,47,47,43,1055.2925749589995,,,,,,,,,,,,,,,,bottom,,,,,,,,1055.278793417001,1057.3263652919995,1057.3265328340021,1062.5759855420001,1062.582306417,1063.8261085000013,1063.8273904589987,1066.1599916250016,1066.1617767089992,1067.9268703750022,evensplit,FinalRedContrast,FinalGreenContrast,1067.9284902500003,1070.193416459002,3,051226cm,001,2026-05-12_14h08.53.923,priming,,2026.1.3,60.00282025225579,2026-05-12 14h08.54.540040 -0700,
GR_Congruent_GreenCue_GreenProbe_Top,GreenGaborBoth.png,RedGaborBoth.png,GreenGaborDisappearTop.png,RedGaborBoth.png,Green.mp3,green,top,48,48,0,,,,0,48,48,66,1070.209338749999,,,,,,,,,,,,,,,,top,,,,,,,,1070.193514417002,1074.426501209,1074.426665250001,1079.676159958999,1079.682615875001,1080.9261728339989,1080.9274006250016,1081.9598818340019,1081.9615545839988,1084.8270018340008,allgreen,FinalRedContrast,FinalGreenContrast,1084.8282111670014,1092.1436773339992,4,051226cm,001,2026-05-12_14h08.53.923,priming,,2026.1.3,60.00282025225579,2026-05-12 14h08.54.540040 -0700,
GR_Congruent_GreenCue_GreenProbe_Top,GreenGaborBoth.png,RedGaborBoth.png,GreenGaborDisappearTop.png,RedGaborBoth.png,Green.mp3,green,top,49,49,0,,,,0,49,49,58,1092.1594860840014,,,,,,,,,,,,,,,,top,,,,,,,,1092.1438131249997,1092.843159084001,1092.8433196670012,1098.0928089590016,1098.099172667,1099.3428493339998,1099.3446397920015,1102.9431632090018,1102.9444839169992,1106.476997959002,evensplit,FinalRedContrast,FinalGreenContrast,1106.477822249999,1111.160264334001,4,051226cm,001,2026-05-12_14h08.53.923,priming,,2026.1.3,60.00282025225579,2026-05-12 14h08.54.540040 -0700,
GR_Congruent_RedCue_RedProbe_Bottom,GreenGaborBoth.png,RedGaborBoth.png,GreenGaborBoth.png,RedGaborDisappearBottom.png,Red.mp3,red,bottom,50,50,0,,,,0,50,50,9,1111.1761756250016,,,,,,,,,,,,,,,,bottom,,,,,,,,1111.1618435000019,1112.293061542001,1112.2932288750017,1117.542769874999,1117.549032125,1118.7929677089996,1118.7947715840019,1120.5770247920009,1120.5783887090001,1123.2938301249997,evensplit,FinalRedContrast,FinalGreenContrast,1123.2944836669994,1126.7271094999996,3,051226cm,001,2026-05-12_14h08.53.923,priming,,2026.1.3,60.00282025225579,2026-05-12 14h08.54.540040 -0700,
GR_Incongruent_RedCue_GreenProbe_Top,GreenGaborBoth.png,RedGaborBoth.png,GreenGaborDisappearTop.png,RedGaborBoth.png,Red.mp3,red,top,51,51,0,,,,0,51,51,44,1126.7429387500015,,,,,,,,,,,,,,,,top,,,,,,,,1126.7272055419999,1128.5936863749994,1128.593865834002,1133.8430600840002,1133.8493949170006,1135.0928993750022,1135.0947364999993,1135.6932923339991,1135.695050792001,1137.7103727920003,mostlygreen,FinalRedContrast,FinalGreenContrast,1137.7119606670021,1139.5271588750002,4,051226cm,001,2026-05-12_14h08.53.923,priming,,2026.1.3,60.00282025225579,2026-05-12 14h08.54.540040 -0700,
GR_Congruent_RedCue_RedProbe_Top,GreenGaborBoth.png,RedGaborBoth.png,GreenGaborBoth.png,RedGaborDisappearTop.png,Red.mp3,red,top,52,52,0,,,,0,52,52,32,1139.5429376249995,,,,,,,,,,,,,,,,top,,,,,,,,1139.5272550000009,1140.3599432090014,1140.3601042500013,1145.6096572919996,1145.6160716250015,1146.8596312920017,1146.8610815840002,1148.310001709,1148.3118361670022,1149.8605090419987,mostlyred,FinalRedContrast,FinalGreenContrast,1149.8610676249991,1150.9437967500016,3,051226cm,001,2026-05-12_14h08.53.923,priming,,2026.1.3,60.00282025225579,2026-05-12 14h08.54.540040 -0700,
GR_Incongruent_RedCue_GreenProbe_Bottom,GreenGaborBoth.png,RedGaborBoth.png,GreenGaborDisappearBottom.png,RedGaborBoth.png,Red.mp3,red,bottom,53,53,0,,,,0,53,53,61,1150.9594901669989,,,,,,,,,,,,,,,,bottom,,,,,,,,1150.9438942090019,1153.5599258340008,1153.5600880419988,1158.8095356250014,1158.8159357090008,1160.0596108339996,1160.0616032500002,1161.1933427090007,1161.195104167,1162.1603930839992,evensplit,FinalRedContrast,FinalGreenContrast,1162.1617596670003,1163.3439130840015,4,051226cm,001,2026-05-12_14h08.53.923,priming,,2026.1.3,60.00282025225579,2026-05-12 14h08.54.540040 -0700,
GR_Incongruent_GreenCue_RedProbe_Bottom,GreenGaborBoth.png,RedGaborBoth.png,GreenGaborBoth.png,RedGaborDisappearBottom.png,Green.mp3,green,bottom,54,54,0,,,,0,54,54,39,1163.3597122499996,,,,,,,,,,,,,,,,bottom,,,,,,,,1163.3457708749993,1164.0099726670014,1164.0101400000021,1169.2597372500022,1169.266066125001,1170.5097674589997,1170.5115836250006,1171.1768754170007,1171.1781117499995,1173.5438751670008,mostlyred,FinalRedContrast,FinalGreenContrast,1173.545294167001,1176.377284541999,4,051226cm,001,2026-05-12_14h08.53.923,priming,,2026.1.3,60.00282025225579,2026-05-12 14h08.54.540040 -0700,
GR_Incongruent_RedCue_GreenProbe_Bottom,GreenGaborBoth.png,RedGaborBoth.png,GreenGaborDisappearBottom.png,RedGaborBoth.png,Red.mp3,red,bottom,55,55,0,,,,0,55,55,69,1176.3930114590003,,,,,,,,,,,,,,,,bottom,,,,,,,,1176.3789488340008,1178.6933087920006,1178.6934750420005,1183.943141459,1183.949481833999,1185.1929966669995,1185.195098917,1185.9935189589996,1185.9942880420022,1187.543840041999,mostlygreen,FinalRedContrast,FinalGreenContrast,1187.5446971250021,1189.3272774590005,4,051226cm,001,2026-05-12_14h08.53.923,priming,,2026.1.3,60.00282025225579,2026-05-12 14h08.54.540040 -0700,
GR_Incongruent_GreenCue_RedProbe_Top,GreenGaborBoth.png,RedGaborBoth.png,GreenGaborBoth.png,RedGaborDisappearTop.png,Green.mp3,green,top,56,56,0,,,,0,56,56,14,1189.343001666999,,,,,,,,,,,,,,,,top,,,,,,,,1189.3292725419997,1190.3600248750008,1190.360191459,1195.6097935840007,1195.6163018750012,1196.8597919589993,1196.8615500839987,1197.5934849170008,1197.5951463339989,1198.877310374999,mostlygreen,FinalRedContrast,FinalGreenContrast,1198.8787405000003,1200.2439852089992,4,051226cm,001,2026-05-12_14h08.53.923,priming,,2026.1.3,60.00282025225579,2026-05-12 14h08.54.540040 -0700,
GR_Incongruent_RedCue_GreenProbe_Top,GreenGaborBoth.png,RedGaborBoth.png,GreenGaborDisappearTop.png,RedGaborBoth.png,Red.mp3,red,top,57,57,0,,,,0,57,57,68,1200.259663834,,,,,,,,,,,,,,,,top,,,,,,,,1200.2455795419992,1200.8433549590009,1200.8435197500003,1206.0933098339992,1206.100730500002,1207.3431072089988,1207.3443324590007,1209.4935514999997,1209.4953274590007,1211.6939631669993,mostlygreen,FinalRedContrast,FinalGreenContrast,1211.6952925000005,1212.9106940419988,3,051226cm,001,2026-05-12_14h08.53.923,priming,,2026.1.3,60.00282025225579,2026-05-12 14h08.54.540040 -0700,
GR_Incongruent_RedCue_GreenProbe_Top,GreenGaborBoth.png,RedGaborBoth.png,GreenGaborDisappearTop.png,RedGaborBoth.png,Red.mp3,red,top,58,58,0,,,,0,58,58,36,1212.9265299590006,,,,,,,,,,,,,,,,bottom,,,,,,,,1212.9107893340006,1231.460190583999,1231.4603597919995,1236.7099537089998,1236.7164137500004,1237.9599036670006,1237.9613554169991,1240.1269534169987,1240.128896792001,1245.2106650839996,mostlyred,FinalRedContrast,FinalGreenContrast,1245.212181584,1247.8774856669988,4,051226cm,001,2026-05-12_14h08.53.923,priming,,2026.1.3,60.00282025225579,2026-05-12 14h08.54.540040 -0700,
GR_Congruent_GreenCue_GreenProbe_Bottom,GreenGaborBoth.png,RedGaborBoth.png,GreenGaborDisappearBottom.png,RedGaborBoth.png,Green.mp3,green,bottom,59,59,0,,,,0,59,59,19,1247.8930916249992,,,,,,,,,,,,,,,,bottom,,,,,,,,1247.8794837919995,1249.2102307919995,1249.2103933340004,1254.4599768750013,1254.4665384590007,1255.7099935000006,1255.7121605840002,1256.2604397920004,1256.2621337500022,1257.44423225,mostlygreen,FinalRedContrast,FinalGreenContrast,1257.444836417002,1259.4108239170018,3,051226cm,001,2026-05-12_14h08.53.923,priming,,2026.1.3,60.00282025225579,2026-05-12 14h08.54.540040 -0700,
GR_Incongruent_GreenCue_RedProbe_Top,GreenGaborBoth.png,RedGaborBoth.png,GreenGaborBoth.png,RedGaborDisappearTop.png,Green.mp3,green,top,60,60,0,,,,0,60,60,54,1259.4265775839995,,,,,,,,,,,,,,,,top,,,,,,,,1259.4109215839999,1260.277008000001,1260.2771712920003,1265.5266573340014,1265.5331508339987,1266.776643917001,1266.778281125,1267.7937628340005,1267.7945158340008,1269.4940839170013,mostlyred,FinalRedContrast,FinalGreenContrast,1269.4954995840017,1272.9607802499995,3,051226cm,001,2026-05-12_14h08.53.923,priming,,2026.1.3,60.00282025225579,2026-05-12 14h08.54.540040 -0700,
GR_Congruent_GreenCue_GreenProbe_Bottom,GreenGaborBoth.png,RedGaborBoth.png,GreenGaborDisappearBottom.png,RedGaborBoth.png,Green.mp3,green,bottom,61,61,0,,,,0,61,61,35,1272.976613875002,,,,,,,,,,,,,,,,bottom,,,,,,,,1272.9608787500001,1273.5603412500022,1273.5605033339998,1278.8100155419997,1278.8164570000008,1280.0600421669988,1280.0617815000005,1281.0437142090013,1281.0448980420006,1286.6608527919998,evensplit,FinalRedContrast,FinalGreenContrast,1286.6619744589989,1288.5275068750016,3,051226cm,001,2026-05-12_14h08.53.923,priming,,2026.1.3,60.00282025225579,2026-05-12 14h08.54.540040 -0700,
GR_Congruent_RedCue_RedProbe_Bottom,GreenGaborBoth.png,RedGaborBoth.png,GreenGaborBoth.png,RedGaborDisappearBottom.png,Red.mp3,red,bottom,62,62,0,,,,0,62,62,65,1288.5431925420016,,,,,,,,,,,,,,,,top,,,,,,,,1288.5291479590014,1289.160366125001,1289.160530666999,1294.410022125001,1294.4166328339998,1295.6599725839988,1295.6619177089997,1297.3775115839999,1297.3783277500006,1299.327631084001,evensplit,FinalRedContrast,FinalGreenContrast,1299.3291616669994,1301.5443149589992,3,051226cm,001,2026-05-12_14h08.53.923,priming,,2026.1.3,60.00282025225579,2026-05-12 14h08.54.540040 -0700,
GR_Incongruent_GreenCue_RedProbe_Bottom,GreenGaborBoth.png,RedGaborBoth.png,GreenGaborBoth.png,RedGaborDisappearBottom.png,Green.mp3,green,bottom,63,63,0,,,,0,63,63,71,1301.5601437090008,,,,,,,,,,,,,,,,bottom,,,,,,,,1301.5463046250006,1317.9938341250017,1317.994003333999,1323.2435710419995,1323.2501231669994,1324.49346125,1324.4952053750021,1325.4772020419987,1325.4791348340004,1327.311033334001,mostlyred,FinalRedContrast,FinalGreenContrast,1327.3122851670014,1328.844389124999,3,051226cm,001,2026-05-12_14h08.53.923,priming,,2026.1.3,60.00282025225579,2026-05-12 14h08.54.540040 -0700,
RR_non_riv_catch_RedCue_RedProbe_Bottom,Blank.png,RedGaborBoth.png,Blank.png,RedGaborDisappearBottom.png,Red.mp3,red,bottom,64,64,0,,,,0,64,64,73,1328.860005417002,,,,,,,,,,,,,,,,bottom,,,,,,,,1328.8459555840018,1329.3937092919987,1329.3938745839987,1334.643485875,1334.6489829169986,1335.8934744590006,1335.8953663339998,1337.6439746249998,1337.6456951250002,1338.5442751670016,allred,FinalRedContrast,FinalGreenContrast,1338.5454720000016,1341.2609639170005,4,051226cm,001,2026-05-12_14h08.53.923,priming,,2026.1.3,60.00282025225579,2026-05-12 14h08.54.540040 -0700,
GR_Congruent_RedCue_RedProbe_Top,GreenGaborBoth.png,RedGaborBoth.png,GreenGaborBoth.png,RedGaborDisappearTop.png,Red.mp3,red,top,65,65,0,,,,0,65,65,24,1341.2767415000017,,,,,,,,,,,,,,,,top,,,,,,,,1341.2610630000017,1342.1271869170014,1342.1273494589987,1347.3768655839995,1347.3834444589993,1348.6270677920002,1348.628741667002,1349.7273248339989,1349.7292369589995,1350.3944304590004,allred,FinalRedContrast,FinalGreenContrast,1350.3948164169997,1354.061143584,3,051226cm,001,2026-05-12_14h08.53.923,priming,,2026.1.3,60.00282025225579,2026-05-12 14h08.54.540040 -0700,
GG_non_riv_catch_GreenCue_GreenProbe_Top,GreenGaborBoth.png,Blank.png,GreenGaborDisappearTop.png,Blank.png,Green.mp3,green,top,66,66,0,,,,0,66,66,78,1354.0768542090009,,,,,,,,,,,,,,,,top,,,,,,,,1354.0630181670022,1354.5105310840008,1354.5106988750013,1359.7605149590017,1359.7661882089997,1361.010249834002,1361.0124077090004,1361.7107028339997,1361.712362667,1363.4946811670015,allgreen,FinalRedContrast,FinalGreenContrast,1363.4957973339988,1364.1613949169987,1,051226cm,001,2026-05-12_14h08.53.923,priming,,2026.1.3,60.00282025225579,2026-05-12 14h08.54.540040 -0700,
GR_Incongruent_RedCue_GreenProbe_Bottom,GreenGaborBoth.png,RedGaborBoth.png,GreenGaborDisappearBottom.png,RedGaborBoth.png,Red.mp3,red,bottom,67,67,0,,,,0,67,67,37,1364.1769037500017,,,,,,,,,,,,,,,,bottom,,,,,,,,1364.163077000001,1365.0608223749987,1365.0609967090022,1370.3102305419998,1370.3167590420016,1371.5603134170015,1371.5616859170004,1373.043996291999,1373.0457602089991,1374.8944580419993,mostlygreen,FinalRedContrast,FinalGreenContrast,1374.8956726670003,1376.9614966670015,3,051226cm,001,2026-05-12_14h08.53.923,priming,,2026.1.3,60.00282025225579,2026-05-12 14h08.54.540040 -0700,
GR_Congruent_GreenCue_GreenProbe_Top,GreenGaborBoth.png,RedGaborBoth.png,GreenGaborDisappearTop.png,RedGaborBoth.png,Green.mp3,green,top,68,68,0,,,,0,68,68,2,1376.976862833999,,,,,,,,,,,,,,,,top,,,,,,,,1376.9632649170017,1377.543782959001,1377.5439466669995,1382.7936794170018,1382.799999709001,1384.0436529170001,1384.0453173339993,1385.8939387089995,1385.8957656250022,1387.6275587500022,mostlygreen,FinalRedContrast,FinalGreenContrast,1387.6285158749997,1390.4112502499993,3,051226cm,001,2026-05-12_14h08.53.923,priming,,2026.1.3,60.00282025225579,2026-05-12 14h08.54.540040 -0700,
GR_Congruent_GreenCue_GreenProbe_Bottom,GreenGaborBoth.png,RedGaborBoth.png,GreenGaborDisappearBottom.png,RedGaborBoth.png,Green.mp3,green,bottom,69,69,0,,,,0,69,69,11,1390.4270448339994,,,,,,,,,,,,,,,,bottom,,,,,,,,1390.4113456250016,1395.1439544589994,1395.1441177919987,1400.3937255419987,1400.4001312090004,1401.6436800420015,1401.6453187920015,1402.410782834002,1402.4125125419996,1403.844553084,mostlyred,FinalRedContrast,FinalGreenContrast,1403.8452266669992,1405.2278857499987,3,051226cm,001,2026-05-12_14h08.53.923,priming,,2026.1.3,60.00282025225579,2026-05-12 14h08.54.540040 -0700,
GR_Congruent_GreenCue_GreenProbe_Top,GreenGaborBoth.png,RedGaborBoth.png,GreenGaborDisappearTop.png,RedGaborBoth.png,Green.mp3,green,top,70,70,0,,,,0,70,70,26,1405.2436062090019,,,,,,,,,,,,,,,,top,,,,,,,,1405.227983208999,1414.5774447090007,1414.5776074999994,1419.8270967089993,1419.8335015420016,1421.0770804169988,1421.0788142089987,1421.5775215419999,1421.5783027500001,1423.5612450840017,mostlyred,FinalRedContrast,FinalGreenContrast,1423.562526709,1427.7615594999988,3,051226cm,001,2026-05-12_14h08.53.923,priming,,2026.1.3,60.00282025225579,2026-05-12 14h08.54.540040 -0700,
GR_Incongruent_RedCue_GreenProbe_Bottom,GreenGaborBoth.png,RedGaborBoth.png,GreenGaborDisappearBottom.png,RedGaborBoth.png,Red.mp3,red,bottom,71,71,0,,,,0,71,71,5,1427.7770383339994,,,,,,,,,,,,,,,,bottom,,,,,,,,1427.7631328749994,1430.944085250001,1430.9442512919995,1436.1938924999995,1436.200368124999,1437.443857792001,1437.4455547500002,1439.0443115000016,1439.0453598749991,1456.9780738750014,mostlygreen,FinalRedContrast,FinalGreenContrast,1456.9792937089987,1458.1446974589999,3,051226cm,001,2026-05-12_14h08.53.923,priming,,2026.1.3,60.00282025225579,2026-05-12 14h08.54.540040 -0700,
GR_Incongruent_RedCue_GreenProbe_Bottom,GreenGaborBoth.png,RedGaborBoth.png,GreenGaborDisappearBottom.png,RedGaborBoth.png,Red.mp3,red,bottom,72,72,0,,,,0,72,72,53,1458.1604206250013,,,,,,,,,,,,,,,,bottom,,,,,,,,1458.1447965420011,1458.9275479169992,1458.9277109590003,1464.1772468749987,1464.1837875839992,1465.427196167002,1465.429112624999,1466.4610358749997,1466.4626752500008,1468.5612770420012,mostlygreen,FinalRedContrast,FinalGreenContrast,1468.5625587499999,1469.761312499999,3,051226cm,001,2026-05-12_14h08.53.923,priming,,2026.1.3,60.00282025225579,2026-05-12 14h08.54.540040 -0700,
GR_Incongruent_RedCue_GreenProbe_Bottom,GreenGaborBoth.png,RedGaborBoth.png,GreenGaborDisappearBottom.png,RedGaborBoth.png,Red.mp3,red,bottom,73,73,0,,,,0,73,73,13,1469.7771969999994,,,,,,,,,,,,,,,,bottom,,,,,,,,1469.761410375002,1477.0275537919988,1477.0277202920006,1482.277362334,1482.2838824169994,1483.5273747089996,1483.5291273750008,1484.4277519999996,1484.4295682500015,1485.4448153340018,evensplit,FinalRedContrast,FinalGreenContrast,1485.446079292,1486.7452020839992,3,051226cm,001,2026-05-12_14h08.53.923,priming,,2026.1.3,60.00282025225579,2026-05-12 14h08.54.540040 -0700,
GR_Congruent_RedCue_RedProbe_Top,GreenGaborBoth.png,RedGaborBoth.png,GreenGaborBoth.png,RedGaborDisappearTop.png,Red.mp3,red,top,74,74,0,,,,0,74,74,40,1486.7606186670018,,,,,,,,,,,,,,,,top,,,,,,,,1486.7452977089997,1487.361024042002,1487.361185042002,1492.6106574590012,1492.6171212090012,1493.8605802919992,1493.8635225840007,1495.4278557090001,1495.4289464590001,1498.8115335420007,evensplit,FinalRedContrast,FinalGreenContrast,1498.8127759589988,1501.4281267920014,3,051226cm,001,2026-05-12_14h08.53.923,priming,,2026.1.3,60.00282025225579,2026-05-12 14h08.54.540040 -0700,
GR_Congruent_RedCue_RedProbe_Bottom,GreenGaborBoth.png,RedGaborBoth.png,GreenGaborBoth.png,RedGaborDisappearBottom.png,Red.mp3,red,bottom,75,75,0,,,,0,75,75,1,1501.4438311250015,,,,,,,,,,,,,,,,bottom,,,,,,,,1501.4282284590008,1502.144203459,1502.144365125001,1507.3938869170015,1507.4003092089988,1508.644077375,1508.6459387920004,1510.1281686250004,1510.1286842500012,1511.2448028340004,allred,FinalRedContrast,FinalGreenContrast,1511.2460970840002,1513.661484291999,4,051226cm,001,2026-05-12_14h08.53.923,priming,,2026.1.3,60.00282025225579,2026-05-12 14h08.54.540040 -0700,
GR_Incongruent_GreenCue_RedProbe_Top,GreenGaborBoth.png,RedGaborBoth.png,GreenGaborBoth.png,RedGaborDisappearTop.png,Green.mp3,green,top,76,76,0,,,,0,76,76,30,1513.6772456670005,,,,,,,,,,,,,,,,top,,,,,,,,1513.663461,1514.994285249999,1514.9944533750022,1520.2440370420009,1520.250414541999,1521.4939384999998,1521.4960125840007,1522.5112016249986,1522.5123168339996,1534.861599750002,evensplit,FinalRedContrast,FinalGreenContrast,1534.862934208999,1536.578280709,3,051226cm,001,2026-05-12_14h08.53.923,priming,,2026.1.3,60.00282025225579,2026-05-12 14h08.54.540040 -0700,
GR_Incongruent_GreenCue_RedProbe_Bottom,GreenGaborBoth.png,RedGaborBoth.png,GreenGaborBoth.png,RedGaborDisappearBottom.png,Green.mp3,green,bottom,77,77,0,,,,0,77,77,23,1536.5940752499992,,,,,,,,,,,,,,,,bottom,,,,,,,,1536.5783781249993,1537.511063959002,1537.5112315000006,1542.760668584,1542.7670927090003,1544.0108044590015,1544.0127552500016,1544.7278739169997,1544.729428292001,1545.6448820000005,mostlyred,FinalRedContrast,FinalGreenContrast,1545.6458975839996,1546.6282202090006,3,051226cm,001,2026-05-12_14h08.53.923,priming,,2026.1.3,60.00282025225579,2026-05-12 14h08.54.540040 -0700,
GR_Incongruent_GreenCue_RedProbe_Bottom,GreenGaborBoth.png,RedGaborBoth.png,GreenGaborBoth.png,RedGaborDisappearBottom.png,Green.mp3,green,bottom,78,78,0,,,,0,78,78,63,1546.6441425000012,,,,,,,,,,,,,,,,bottom,,,,,,,,1546.6283142920001,1547.6277846670018,1547.6279485420018,1552.8775576670014,1552.8841002500012,1554.127444624999,1554.1292460840014,1555.3944839590004,1555.3959391249991,1557.1453477920004,mostlyred,FinalRedContrast,FinalGreenContrast,1557.1456112090018,1558.711581959,3,051226cm,001,2026-05-12_14h08.53.923,priming,,2026.1.3,60.00282025225579,2026-05-12 14h08.54.540040 -0700,
GR_Incongruent_GreenCue_RedProbe_Top,GreenGaborBoth.png,RedGaborBoth.png,GreenGaborBoth.png,RedGaborDisappearTop.png,Green.mp3,green,top,79,79,0,,,,0,79,79,38,1558.727398250001,,,,,,,,,,,,,,,,top,,,,,,,,1558.7116787500017,1562.644316375001,1562.6444818749987,1567.894299959,1567.900773166999,1569.1442787500018,1569.1463022089993,1569.9280002090018,1569.9295143339987,1571.6284552500001,mostlyred,FinalRedContrast,FinalGreenContrast,1571.628917500002,1572.978401291999,4,051226cm,001,2026-05-12_14h08.53.923,priming,,2026.1.3,60.00282025225579,2026-05-12 14h08.54.540040 -0700,
RR_non_riv_catch_RedCue_RedProbe_Top,Blank.png,RedGaborBoth.png,Blank.png,RedGaborDisappearTop.png,Red.mp3,red,top,80,0,1,,,,1,0,80,72,1572.994212583999,,,,,,,,,,,,,,,,top,,,,,,,,1572.9800652500016,1825.5285700000022,1825.5287335419998,1830.7783019999988,1830.7839230419995,1832.028272833999,1832.0300520839992,1832.6787227919995,1832.6803668339999,1833.479052958999,allred,FinalRedContrast,FinalGreenContrast,1833.4803186669997,1835.0290757090006,5,051226cm,001,2026-05-12_14h08.53.923,priming,,2026.1.3,60.00282025225579,2026-05-12 14h08.54.540040 -0700,
GR_Incongruent_RedCue_GreenProbe_Bottom,GreenGaborBoth.png,RedGaborBoth.png,GreenGaborDisappearBottom.png,RedGaborBoth.png,Red.mp3,red,bottom,81,1,1,,,,1,1,81,45,1835.0448367089994,,,,,,,,,,,,,,,,bottom,,,,,,,,1835.0291722500006,1835.5786834589999,1835.5788450420005,1840.8283820420002,1840.8348500419997,1842.0784212090002,1842.0803162090015,1842.9287757089987,1842.930509624999,1843.929183250002,evensplit,FinalRedContrast,FinalGreenContrast,1843.929975375002,1845.3126215000011,3,051226cm,001,2026-05-12_14h08.53.923,priming,,2026.1.3,60.00282025225579,2026-05-12 14h08.54.540040 -0700,
GR_Incongruent_RedCue_GreenProbe_Top,GreenGaborBoth.png,RedGaborBoth.png,GreenGaborDisappearTop.png,RedGaborBoth.png,Red.mp3,red,top,82,2,1,,,,1,2,82,4,1845.3282042499995,,,,,,,,,,,,,,,,top,,,,,,,,1845.312716291999,1846.0619800839995,1846.0621450420003,1851.3116417089986,1851.3180993339993,1852.5617432500003,1852.5632968339996,1854.0787296250019,1854.080065000002,1855.7791801249987,evensplit,FinalRedContrast,FinalGreenContrast,1855.779990209001,1856.9791597090007,4,051226cm,001,2026-05-12_14h08.53.923,priming,,2026.1.3,60.00282025225579,2026-05-12 14h08.54.540040 -0700,
GR_Congruent_RedCue_RedProbe_Top,GreenGaborBoth.png,RedGaborBoth.png,GreenGaborBoth.png,RedGaborDisappearTop.png,Red.mp3,red,top,83,3,1,,,,1,3,83,24,1856.9948283340018,,,,,,,,,,,,,,,,top,,,,,,,,1856.9792557500004,1857.5120276250018,1857.5121913750008,1862.7617200839995,1862.768140209002,1864.011740124999,1864.0134902499994,1864.8953739169992,1864.897186541999,1866.9127073339987,mostlyred,FinalRedContrast,FinalGreenContrast,1866.913058459002,1868.8291635419992,3,051226cm,001,2026-05-12_14h08.53.923,priming,,2026.1.3,60.00282025225579,2026-05-12 14h08.54.540040 -0700,
GR_Incongruent_GreenCue_RedProbe_Top,GreenGaborBoth.png,RedGaborBoth.png,GreenGaborBoth.png,RedGaborDisappearTop.png,Green.mp3,green,top,84,4,1,,,,1,4,84,46,1868.845061625001,,,,,,,,,,,,,,,,top,,,,,,,,1868.8310219170016,1869.8956718750014,1869.8958454169988,1875.1450275839998,1875.1513484589996,1876.3949550840007,1876.396865584,1876.9454506670008,1876.9464425840015,1879.079177833999,mostlygreen,FinalRedContrast,FinalGreenContrast,1879.0804656250002,1881.8292701249993,4,051226cm,001,2026-05-12_14h08.53.923,priming,,2026.1.3,60.00282025225579,2026-05-12 14h08.54.540040 -0700,
GR_Congruent_GreenCue_GreenProbe_Top,GreenGaborBoth.png,RedGaborBoth.png,GreenGaborDisappearTop.png,RedGaborBoth.png,Green.mp3,green,top,85,5,1,,,,1,5,85,10,1881.8451263749994,,,,,,,,,,,,,,,,top,,,,,,,,1881.8293691670006,1883.7787988749988,1883.7789643750002,1889.0285106670017,1889.0349210839995,1890.2785562089994,1890.2801130000007,1891.6122331250008,1891.613458374999,1892.2959425000008,mostlyred,FinalRedContrast,FinalGreenContrast,1892.297238209001,1893.3958956669994,3,051226cm,001,2026-05-12_14h08.53.923,priming,,2026.1.3,60.00282025225579,2026-05-12 14h08.54.540040 -0700,
GR_Incongruent_RedCue_GreenProbe_Bottom,GreenGaborBoth.png,RedGaborBoth.png,GreenGaborDisappearBottom.png,RedGaborBoth.png,Red.mp3,red,bottom,86,6,1,,,,1,6,86,5,1893.4118018750014,,,,,,,,,,,,,,,,bottom,,,,,,,,1893.3975295419987,1893.9453812499996,1893.9455498339994,1899.1950455840015,1899.2015114999995,1900.4617236250015,1900.4638030839997,1903.9455243340017,1903.9467518339989,1914.912728667001,mostlygreen,FinalRedContrast,FinalGreenContrast,1914.913009709002,1917.6963055839988,3,051226cm,001,2026-05-12_14h08.53.923,priming,,2026.1.3,60.00282025225579,2026-05-12 14h08.54.540040 -0700,
GR_Incongruent_RedCue_GreenProbe_Top,GreenGaborBoth.png,RedGaborBoth.png,GreenGaborDisappearTop.png,RedGaborBoth.png,Red.mp3,red,top,87,7,1,,,,1,7,87,36,1917.711751709001,,,,,,,,,,,,,,,,top,,,,,,,,1917.6964147090002,1922.0456151670005,1922.0457802500023,1927.2953226669997,1927.3016860419993,1928.5453299590008,1928.546915875002,1929.1955992500007,1929.197364959,1930.0628042499993,mostlygreen,FinalRedContrast,FinalGreenContrast,1930.064007334,1931.546066875002,3,051226cm,001,2026-05-12_14h08.53.923,priming,,2026.1.3,60.00282025225579,2026-05-12 14h08.54.540040 -0700,
RR_non_riv_catch_GreenCue_RedProbe_Bottom,Blank.png,RedGaborBoth.png,Blank.png,RedGaborDisappearBottom.png,Green.mp3,green,bottom,88,8,1,,,,1,8,88,75,1931.5618233749992,,,,,,,,,,,,,,,,bottom,,,,,,,,1931.547992625001,1932.1788615840014,1932.179028167,1937.428608792001,1937.4341379590005,1938.6786017920022,1938.6804707500014,1939.295760334,1939.2973164590003,1940.7794814590015,allred,FinalRedContrast,FinalGreenContrast,1940.7806748750008,1945.746087833999,2,051226cm,001,2026-05-12_14h08.53.923,priming,,2026.1.3,60.00282025225579,2026-05-12 14h08.54.540040 -0700,
GR_Congruent_GreenCue_GreenProbe_Top,GreenGaborBoth.png,RedGaborBoth.png,GreenGaborDisappearTop.png,RedGaborBoth.png,Green.mp3,green,top,89,9,1,,,,1,9,89,42,1945.7619092919995,,,,,,,,,,,,,,,,top,,,,,,,,1945.7461857919989,1946.8455586669988,1946.8457210000015,1952.0953001670023,1952.1016857920004,1953.3451833750005,1953.347338167001,1957.5790827500023,1957.580767042,1964.8960186250006,evensplit,FinalRedContrast,FinalGreenContrast,1964.8974645420021,1966.529517709001,3,051226cm,001,2026-05-12_14h08.53.923,priming,,2026.1.3,60.00282025225579,2026-05-12 14h08.54.540040 -0700,
GR_Congruent_RedCue_RedProbe_Bottom,GreenGaborBoth.png,RedGaborBoth.png,GreenGaborBoth.png,RedGaborDisappearBottom.png,Red.mp3,red,bottom,90,10,1,,,,1,10,90,9,1966.5451169590015,,,,,,,,,,,,,,,,bottom,,,,,,,,1966.5311577920002,1974.3957525840015,1974.3959212920017,1979.645364125001,1979.6518864169993,1980.895455083999,1980.8969312090012,1981.9458010000017,1981.9474320420013,1983.246227292002,mostlyred,FinalRedContrast,FinalGreenContrast,1983.2475791670004,1984.3629639169994,4,051226cm,001,2026-05-12_14h08.53.923,priming,,2026.1.3,60.00282025225579,2026-05-12 14h08.54.540040 -0700,
GR_Congruent_RedCue_RedProbe_Top,GreenGaborBoth.png,RedGaborBoth.png,GreenGaborBoth.png,RedGaborDisappearTop.png,Red.mp3,red,top,91,11,1,,,,1,11,91,64,1984.3786212920022,,,,,,,,,,,,,,,,top,,,,,,,,1984.3630649170009,1985.6289341670017,1985.6291008750013,1990.878742500001,1990.8852819589993,1992.1287700419998,1992.1305040420011,1993.4125074170006,1993.4142049170005,1994.6795983340016,allred,FinalRedContrast,FinalGreenContrast,1994.6807914170022,1996.362880042001,4,051226cm,001,2026-05-12_14h08.53.923,priming,,2026.1.3,60.00282025225579,2026-05-12 14h08.54.540040 -0700,
GR_Congruent_GreenCue_GreenProbe_Bottom,GreenGaborBoth.png,RedGaborBoth.png,GreenGaborDisappearBottom.png,RedGaborBoth.png,Green.mp3,green,bottom,92,12,1,,,,1,12,92,43,1996.3786109169996,,,,,,,,,,,,,,,,bottom,,,,,,,,1996.3647332090004,1997.9457067500007,1997.9458730000006,2003.1954775000013,2003.2020052920016,2004.4453949999988,2004.4471341669996,2005.1958193339997,2005.196957250002,2014.0801627090004,mostlygreen,FinalRedContrast,FinalGreenContrast,2014.080459375,2018.0630015419993,4,051226cm,001,2026-05-12_14h08.53.923,priming,,2026.1.3,60.00282025225579,2026-05-12 14h08.54.540040 -0700,
GR_Congruent_GreenCue_GreenProbe_Bottom,GreenGaborBoth.png,RedGaborBoth.png,GreenGaborDisappearBottom.png,RedGaborBoth.png,Green.mp3,green,bottom,93,13,1,,,,1,13,93,67,2018.0788104169987,,,,,,,,,,,,,,,,bottom,,,,,,,,2018.0631002920018,2018.8125538749991,2018.8127168339997,2024.0622376249994,2024.0688084590001,2025.312195417002,2025.3140729170009,2027.0958926249987,2027.0977441670002,2028.012742125,allred,FinalRedContrast,FinalGreenContrast,2028.0142625420012,2029.3963505419997,1,051226cm,001,2026-05-12_14h08.53.923,priming,,2026.1.3,60.00282025225579,2026-05-12 14h08.54.540040 -0700,
GR_Incongruent_RedCue_GreenProbe_Top,GreenGaborBoth.png,RedGaborBoth.png,GreenGaborDisappearTop.png,RedGaborBoth.png,Red.mp3,red,top,94,14,1,,,,1,14,94,52,2029.4121535000013,,,,,,,,,,,,,,,,bottom,,,,,,,,2029.3980180840008,2029.912493459,2029.9126550420006,2035.1622119589993,2035.168763624999,2036.4124125000017,2036.4136295419994,2043.7459859170012,2043.7476019999995,2045.2297809170013,evensplit,FinalRedContrast,FinalGreenContrast,2045.2304297500013,2048.713026666999,3,051226cm,001,2026-05-12_14h08.53.923,priming,,2026.1.3,60.00282025225579,2026-05-12 14h08.54.540040 -0700,
GR_Incongruent_RedCue_GreenProbe_Bottom,GreenGaborBoth.png,RedGaborBoth.png,GreenGaborDisappearBottom.png,RedGaborBoth.png,Red.mp3,red,bottom,95,15,1,,,,1,15,95,13,2048.728914792002,,,,,,,,,,,,,,,,bottom,,,,,,,,2048.7131266670003,2061.295987166999,2061.296153542,2066.5456725840013,2066.5520937500005,2067.795594792002,2067.797662208999,2075.579399041999,2075.581059291999,2076.5798486249987,mostlyred,FinalRedContrast,FinalGreenContrast,2076.580957209,2077.2965544590006,4,051226cm,001,2026-05-12_14h08.53.923,priming,,2026.1.3,60.00282025225579,2026-05-12 14h08.54.540040 -0700,
GR_Congruent_GreenCue_GreenProbe_Bottom,GreenGaborBoth.png,RedGaborBoth.png,GreenGaborDisappearBottom.png,RedGaborBoth.png,Green.mp3,green,bottom,96,16,1,,,,1,16,96,19,2077.3122713750017,,,,,,,,,,,,,,,,bottom,,,,,,,,2077.298413749999,2077.8126069169994,2077.812773834001,2083.0623555839993,2083.0688699169987,2084.3123517919994,2084.3140657500007,2085.5794094170014,2085.5812372500004,2086.496600541999,evensplit,FinalRedContrast,FinalGreenContrast,2086.496869292001,2088.3463991669996,3,051226cm,001,2026-05-12_14h08.53.923,priming,,2026.1.3,60.00282025225579,2026-05-12 14h08.54.540040 -0700,
GR_Congruent_GreenCue_GreenProbe_Bottom,GreenGaborBoth.png,RedGaborBoth.png,GreenGaborDisappearBottom.png,RedGaborBoth.png,Green.mp3,green,bottom,97,17,1,,,,1,17,97,51,2088.3622744999993,,,,,,,,,,,,,,,,bottom,,,,,,,,2088.3464965839994,2088.8959366669988,2088.896102417002,2094.145651958999,2094.1521894590005,2095.395564958999,2095.3978433750017,2096.862744834001,2096.8639815839997,2098.263103917001,mostlyred,FinalRedContrast,FinalGreenContrast,2098.2643357919987,2099.0131835419998,3,051226cm,001,2026-05-12_14h08.53.923,priming,,2026.1.3,60.00282025225579,2026-05-12 14h08.54.540040 -0700,
GR_Congruent_RedCue_RedProbe_Top,GreenGaborBoth.png,RedGaborBoth.png,GreenGaborBoth.png,RedGaborDisappearTop.png,Red.mp3,red,top,98,18,1,,,,1,18,98,0,2099.0288648749993,,,,,,,,,,,,,,,,top,,,,,,,,2099.0149472090015,2099.396008833999,2099.396173166999,2104.645796500001,2104.6522593340014,2105.8957200000004,2105.8976392090008,2107.4628923339988,2107.464571875,2110.296654875001,evensplit,FinalRedContrast,FinalGreenContrast,2110.297173750001,2111.663364709002,4,051226cm,001,2026-05-12_14h08.53.923,priming,,2026.1.3,60.00282025225579,2026-05-12 14h08.54.540040 -0700,
GR_Incongruent_RedCue_GreenProbe_Top,GreenGaborBoth.png,RedGaborBoth.png,GreenGaborDisappearTop.png,RedGaborBoth.png,Red.mp3,red,top,99,19,1,,,,1,19,99,20,2111.6790639169994,,,,,,,,,,,,,,,,top,,,,,,,,2111.663480084,2112.5794637500003,2112.5796260419993,2117.829087459002,2117.8355502090017,2119.0791410839993,2119.0804322090007,2120.529569541999,2120.531146542002,2123.0467590840017,evensplit,FinalRedContrast,FinalGreenContrast,2123.0474965840003,2123.880063542001,3,051226cm,001,2026-05-12_14h08.53.923,priming,,2026.1.3,60.00282025225579,2026-05-12 14h08.54.540040 -0700,
GR_Incongruent_RedCue_GreenProbe_Bottom,GreenGaborBoth.png,RedGaborBoth.png,GreenGaborDisappearBottom.png,RedGaborBoth.png,Red.mp3,red,bottom,100,20,1,,,,1,20,100,53,2123.895597625,,,,,,,,,,,,,,,,bottom,,,,,,,,2123.880166709001,2124.329463209,2124.3296230000014,2129.5791358339993,2129.585507833999,2130.8291430419995,2130.8305368340007,2131.6795125419994,2131.681206084002,2132.8965722499997,mostlyred,FinalRedContrast,FinalGreenContrast,2132.8975610000016,2136.48008125,2,051226cm,001,2026-05-12_14h08.53.923,priming,,2026.1.3,60.00282025225579,2026-05-12 14h08.54.540040 -0700,
GR_Incongruent_RedCue_GreenProbe_Bottom,GreenGaborBoth.png,RedGaborBoth.png,GreenGaborDisappearBottom.png,RedGaborBoth.png,Red.mp3,red,bottom,101,21,1,,,,1,21,101,37,2136.4956160420006,,,,,,,,,,,,,,,,bottom,,,,,,,,2136.480179792001,2144.2631338339997,2144.263324959,2149.512568792001,2149.5190700839994,2150.7626070000006,2150.764235750001,2153.3129839169997,2153.314233917001,2154.946671417001,evensplit,FinalRedContrast,FinalGreenContrast,2154.948176959002,2155.8633916670005,3,051226cm,001,2026-05-12_14h08.53.923,priming,,2026.1.3,60.00282025225579,2026-05-12 14h08.54.540040 -0700,
GR_Incongruent_RedCue_GreenProbe_Bottom,GreenGaborBoth.png,RedGaborBoth.png,GreenGaborDisappearBottom.png,RedGaborBoth.png,Red.mp3,red,bottom,102,22,1,,,,1,22,102,69,2155.8791602499987,,,,,,,,,,,,,,,,bottom,,,,,,,,2155.863488875002,2156.296155584001,2156.296321124999,2161.545822625001,2161.5523770420004,2162.795883584,2162.797549209001,2163.9462574169993,2163.9479333749987,2164.796782292,mostlygreen,FinalRedContrast,FinalGreenContrast,2164.797477750002,2165.896751667002,3,051226cm,001,2026-05-12_14h08.53.923,priming,,2026.1.3,60.00282025225579,2026-05-12 14h08.54.540040 -0700,
GR_Incongruent_GreenCue_RedProbe_Top,GreenGaborBoth.png,RedGaborBoth.png,GreenGaborBoth.png,RedGaborDisappearTop.png,Green.mp3,green,top,103,23,1,,,,1,23,103,38,2165.9125464999997,,,,,,,,,,,,,,,,top,,,,,,,,2165.898621917,2167.779539542,2167.779705666999,2173.0292725,2173.0358293749996,2174.279257917002,2174.280991292002,2175.5130127090015,2175.513925792002,2178.330157791999,allred,FinalRedContrast,FinalGreenContrast,2178.3308889170003,2180.0800874590022,2,051226cm,001,2026-05-12_14h08.53.923,priming,,2026.1.3,60.00282025225579,2026-05-12 14h08.54.540040 -0700,
GR_Congruent_GreenCue_GreenProbe_Top,GreenGaborBoth.png,RedGaborBoth.png,GreenGaborDisappearTop.png,RedGaborBoth.png,Green.mp3,green,top,104,24,1,,,,1,24,104,18,2180.095851083999,,,,,,,,,,,,,,,,top,,,,,,,,2180.0801870840005,2180.6962586670015,2180.6964214590007,2185.9458505000002,2185.9522908340005,2187.1958572090007,2187.1979656250005,2189.696248791999,2189.698046917001,2191.030203917002,allred,FinalRedContrast,FinalGreenContrast,2191.0314674170004,2192.7302894589993,2,051226cm,001,2026-05-12_14h08.53.923,priming,,2026.1.3,60.00282025225579,2026-05-12 14h08.54.540040 -0700,
GR_Incongruent_RedCue_GreenProbe_Bottom,GreenGaborBoth.png,RedGaborBoth.png,GreenGaborDisappearBottom.png,RedGaborBoth.png,Red.mp3,red,bottom,105,25,1,,,,1,25,105,21,2192.7459126249996,,,,,,,,,,,,,,,,bottom,,,,,,,,2192.7319035,2193.3130589169996,2193.3132277920013,2198.562683291999,2198.5691686249993,2199.812696208999,2199.8139927500015,2200.3798527920007,2200.381469584001,2203.546880459002,mostlyred,FinalRedContrast,FinalGreenContrast,2203.548221584002,2206.880169584001,3,051226cm,001,2026-05-12_14h08.53.923,priming,,2026.1.3,60.00282025225579,2026-05-12 14h08.54.540040 -0700,
GR_Incongruent_RedCue_GreenProbe_Top,GreenGaborBoth.png,RedGaborBoth.png,GreenGaborDisappearTop.png,RedGaborBoth.png,Red.mp3,red,top,106,26,1,,,,1,26,106,68,2206.8958910420006,,,,,,,,,,,,,,,,top,,,,,,,,2206.880268375,2207.4631370839998,2207.4633028749995,2212.712776417,2212.7191518340005,2213.9627357499994,2213.964294542002,2214.5630499590006,2214.564791500001,2216.063486875002,mostlygreen,FinalRedContrast,FinalGreenContrast,2216.064647125,2217.8802179170016,3,051226cm,001,2026-05-12_14h08.53.923,priming,,2026.1.3,60.00282025225579,2026-05-12 14h08.54.540040 -0700,
GG_non_riv_catch_RedCue_GreenProbe_Top,GreenGaborBoth.png,Blank.png,GreenGaborDisappearTop.png,Blank.png,Red.mp3,red,top,107,27,1,,,,1,27,107,76,2217.895907959002,,,,,,,,,,,,,,,,top,,,,,,,,2217.880313959002,2218.6964410420005,2218.6966082920007,2223.9459562500015,2223.9512988749993,2225.196105458999,2225.1979443339987,2226.4465056670015,2226.448194749999,2250.480345250002,allgreen,FinalRedContrast,FinalGreenContrast,2250.4815871249994,2251.913651250001,3,051226cm,001,2026-05-12_14h08.53.923,priming,,2026.1.3,60.00282025225579,2026-05-12 14h08.54.540040 -0700,
GR_Incongruent_GreenCue_RedProbe_Top,GreenGaborBoth.png,RedGaborBoth.png,GreenGaborBoth.png,RedGaborDisappearTop.png,Green.mp3,green,top,108,28,1,,,,1,28,108,6,2251.929443249999,,,,,,,,,,,,,,,,top,,,,,,,,2251.9155292920004,2252.5465295840004,2252.5466944170003,2257.796138875001,2257.802484333999,2259.0460916250013,2259.048204625,2261.3466048340015,2261.3481565420007,2262.847016833999,mostlyred,FinalRedContrast,FinalGreenContrast,2262.8478168750007,2264.8803291250006,3,051226cm,001,2026-05-12_14h08.53.923,priming,,2026.1.3,60.00282025225579,2026-05-12 14h08.54.540040 -0700,
GR_Incongruent_RedCue_GreenProbe_Top,GreenGaborBoth.png,RedGaborBoth.png,GreenGaborDisappearTop.png,RedGaborBoth.png,Red.mp3,red,top,109,29,1,,,,1,29,109,12,2264.8960464170013,,,,,,,,,,,,,,,,bottom,,,,,,,,2264.881966666999,2266.830179167002,2266.8303555839993,2272.0795424999997,2272.0860328750023,2273.3296008750003,2273.3311389590017,2274.029885750002,2274.031661249999,2275.747021084,evensplit,FinalRedContrast,FinalGreenContrast,2275.7478910419995,2276.830332709,1,051226cm,001,2026-05-12_14h08.53.923,priming,,2026.1.3,60.00282025225579,2026-05-12 14h08.54.540040 -0700,
GR_Congruent_RedCue_RedProbe_Bottom,GreenGaborBoth.png,RedGaborBoth.png,GreenGaborBoth.png,RedGaborDisappearBottom.png,Red.mp3,red,bottom,110,30,1,,,,1,30,110,41,2276.846074125002,,,,,,,,,,,,,,,,bottom,,,,,,,,2276.830429624999,2279.5798532920016,2279.580017917,2284.8295871670016,2284.836013084001,2286.0796364589987,2286.081110916999,2286.796679916999,2286.798568209,2289.647509667,mostlyred,FinalRedContrast,FinalGreenContrast,2289.6478194170013,2291.380512333999,3,051226cm,001,2026-05-12_14h08.53.923,priming,,2026.1.3,60.00282025225579,2026-05-12 14h08.54.540040 -0700,
GR_Incongruent_GreenCue_RedProbe_Top,GreenGaborBoth.png,RedGaborBoth.png,GreenGaborBoth.png,RedGaborDisappearTop.png,Green.mp3,green,top,111,31,1,,,,1,31,111,70,2291.3962223750023,,,,,,,,,,,,,,,,top,,,,,,,,2291.3823724169997,2292.0632950420004,2292.0634602089995,2297.3129483340017,2297.3194090840007,2298.562991584,2298.5645497920013,2301.3466251669997,2301.3484528750014,2303.280530709002,allgreen,FinalRedContrast,FinalGreenContrast,2303.28128775,2305.8475484170012,4,051226cm,001,2026-05-12_14h08.53.923,priming,,2026.1.3,60.00282025225579,2026-05-12 14h08.54.540040 -0700,
GR_Congruent_RedCue_RedProbe_Bottom,GreenGaborBoth.png,RedGaborBoth.png,GreenGaborBoth.png,RedGaborDisappearBottom.png,Red.mp3,red,bottom,112,32,1,,,,1,32,112,65,2305.862912708999,,,,,,,,,,,,,,,,top,,,,,,,,2305.8492203749993,2307.096628667001,2307.0967906250007,2312.346343584002,2312.3527993339994,2313.596476417002,2313.5984887090017,2314.330052166999,2314.3312963339995,2316.0971272919996,evensplit,FinalRedContrast,FinalGreenContrast,2316.0984016250004,2317.180454000001,3,051226cm,001,2026-05-12_14h08.53.923,priming,,2026.1.3,60.00282025225579,2026-05-12 14h08.54.540040 -0700,
GR_Congruent_RedCue_RedProbe_Bottom,GreenGaborBoth.png,RedGaborBoth.png,GreenGaborBoth.png,RedGaborDisappearBottom.png,Red.mp3,red,bottom,113,33,1,,,,1,33,113,33,2317.196226209002,,,,,,,,,,,,,,,,bottom,,,,,,,,2317.180552334001,2343.696784833999,2343.696948749999,2348.946481084,2348.9529552919994,2350.1964839169996,2350.197765875,2351.380307167001,2351.381541584,2353.313915292001,mostlyred,FinalRedContrast,FinalGreenContrast,2353.315300459002,2354.9471704589996,3,051226cm,001,2026-05-12_14h08.53.923,priming,,2026.1.3,60.00282025225579,2026-05-12 14h08.54.540040 -0700,
GR_Congruent_GreenCue_GreenProbe_Bottom,GreenGaborBoth.png,RedGaborBoth.png,GreenGaborDisappearBottom.png,RedGaborBoth.png,Green.mp3,green,bottom,114,34,1,,,,1,34,114,59,2354.963003500001,,,,,,,,,,,,,,,,bottom,,,,,,,,2354.9490147920005,2355.7468528749996,2355.7470145000007,2360.996414792,2361.002855458999,2362.2463746249996,2362.248556417002,2363.180231541999,2363.181399208999,2364.863972916999,mostlyred,FinalRedContrast,FinalGreenContrast,2364.865186125,2366.6310088749997,3,051226cm,001,2026-05-12_14h08.53.923,priming,,2026.1.3,60.00282025225579,2026-05-12 14h08.54.540040 -0700,
GR_Incongruent_RedCue_GreenProbe_Bottom,GreenGaborBoth.png,RedGaborBoth.png,GreenGaborDisappearBottom.png,RedGaborBoth.png,Red.mp3,red,bottom,115,35,1,,,,1,35,115,61,2366.6463648339995,,,,,,,,,,,,,,,,top,,,,,,,,2366.6325554590003,2367.430077084002,2367.430242999999,2372.679875624999,2372.6862355420017,2373.929919375001,2373.931927875001,2374.7969377500012,2374.798607749999,2376.397400875001,mostlyred,FinalRedContrast,FinalGreenContrast,2376.39850675,2377.597407084002,3,051226cm,001,2026-05-12_14h08.53.923,priming,,2026.1.3,60.00282025225579,2026-05-12 14h08.54.540040 -0700,
GR_Incongruent_RedCue_GreenProbe_Top,GreenGaborBoth.png,RedGaborBoth.png,GreenGaborDisappearTop.png,RedGaborBoth.png,Red.mp3,red,top,116,36,1,,,,1,36,116,44,2377.6131473749992,,,,,,,,,,,,,,,,top,,,,,,,,2377.5975043750004,2378.3635146250017,2378.363683374999,2383.6132185419992,2383.619667125,2384.8632403750016,2384.865050209002,2387.196952459002,2387.198765792,2388.4639842920005,mostlygreen,FinalRedContrast,FinalGreenContrast,2388.4650067090006,2389.7140260839988,4,051226cm,001,2026-05-12_14h08.53.923,priming,,2026.1.3,60.00282025225579,2026-05-12 14h08.54.540040 -0700,
GR_Congruent_GreenCue_GreenProbe_Bottom,GreenGaborBoth.png,RedGaborBoth.png,GreenGaborDisappearBottom.png,RedGaborBoth.png,Green.mp3,green,bottom,117,37,1,,,,1,37,117,35,2389.7297713340013,,,,,,,,,,,,,,,,bottom,,,,,,,,2389.715999625001,2411.39686325,2411.3970253340012,2416.6467253750016,2416.653239667001,2417.896645834,2417.898689292,2418.5137923340008,2418.5149529590017,2419.2809068339993,evensplit,FinalRedContrast,FinalGreenContrast,2419.281258209001,2421.5308060419993,4,051226cm,001,2026-05-12_14h08.53.923,priming,,2026.1.3,60.00282025225579,2026-05-12 14h08.54.540040 -0700,
GR_Congruent_RedCue_RedProbe_Top,GreenGaborBoth.png,RedGaborBoth.png,GreenGaborBoth.png,RedGaborDisappearTop.png,Red.mp3,red,top,118,38,1,,,,1,38,118,32,2421.5466002089997,,,,,,,,,,,,,,,,top,,,,,,,,2421.532573834,2422.046956334001,2422.047123209002,2427.296684500001,2427.3030042499995,2428.546700375002,2428.5485789170016,2430.9304123750007,2430.9321012090004,2432.0312344170015,mostlyred,FinalRedContrast,FinalGreenContrast,2432.0315435420016,2435.7308317919997,3,051226cm,001,2026-05-12_14h08.53.923,priming,,2026.1.3,60.00282025225579,2026-05-12 14h08.54.540040 -0700,
GR_Incongruent_GreenCue_RedProbe_Bottom,GreenGaborBoth.png,RedGaborBoth.png,GreenGaborBoth.png,RedGaborDisappearBottom.png,Green.mp3,green,bottom,119,39,1,,,,1,39,119,55,2435.7465379999994,,,,,,,,,,,,,,,,bottom,,,,,,,,2435.7328384169996,2438.947010709002,2438.947176709,2444.196763750002,2444.2033019590017,2445.4466854169987,2445.4480485839995,2446.913853875001,2446.915443875001,2447.964116209001,allred,FinalRedContrast,FinalGreenContrast,2447.9652810840016,2450.447489334001,2,051226cm,001,2026-05-12_14h08.53.923,priming,,2026.1.3,60.00282025225579,2026-05-12 14h08.54.540040 -0700,
GR_Incongruent_GreenCue_RedProbe_Bottom,GreenGaborBoth.png,RedGaborBoth.png,GreenGaborBoth.png,RedGaborDisappearBottom.png,Green.mp3,green,bottom,120,40,1,,,,1,40,120,31,2450.4632691670013,,,,,,,,,,,,,,,,bottom,,,,,,,,2450.447587499999,2451.147011000001,2451.147174124999,2456.396661834002,2456.403011417002,2457.6466973749993,2457.648740875,2460.930581834,2460.932228959002,2462.0311487090003,mostlygreen,FinalRedContrast,FinalGreenContrast,2462.0314690839987,2463.064413584001,2,051226cm,001,2026-05-12_14h08.53.923,priming,,2026.1.3,60.00282025225579,2026-05-12 14h08.54.540040 -0700,
GR_Congruent_RedCue_RedProbe_Top,GreenGaborBoth.png,RedGaborBoth.png,GreenGaborBoth.png,RedGaborDisappearTop.png,Red.mp3,red,top,121,41,1,,,,1,41,121,56,2463.0800654170016,,,,,,,,,,,,,,,,top,,,,,,,,2463.066146792,2466.030409209001,2466.030573917,2471.280119875002,2471.2865854170013,2472.5301610839997,2472.5315529590007,2473.780559250001,2473.7821651250015,2474.631175292001,mostlyred,FinalRedContrast,FinalGreenContrast,2474.631496334001,2476.014638208999,4,051226cm,001,2026-05-12_14h08.53.923,priming,,2026.1.3,60.00282025225579,2026-05-12 14h08.54.540040 -0700,
GR_Incongruent_GreenCue_RedProbe_Top,GreenGaborBoth.png,RedGaborBoth.png,GreenGaborBoth.png,RedGaborDisappearTop.png,Green.mp3,green,top,122,42,1,,,,1,42,122,30,2476.0300802499987,,,,,,,,,,,,,,,,top,,,,,,,,2476.016434666999,2481.0971750419994,2481.0973404590004,2486.346758333999,2486.353147124999,2487.5968493340006,2487.598215834001,2488.4805806250006,2488.482194542001,2490.080970375002,mostlyred,FinalRedContrast,FinalGreenContrast,2490.0818744999997,2491.5142952919996,3,051226cm,001,2026-05-12_14h08.53.923,priming,,2026.1.3,60.00282025225579,2026-05-12 14h08.54.540040 -0700,
GR_Incongruent_GreenCue_RedProbe_Bottom,GreenGaborBoth.png,RedGaborBoth.png,GreenGaborBoth.png,RedGaborDisappearBottom.png,Green.mp3,green,bottom,123,43,1,,,,1,43,123,71,2491.5301418749987,,,,,,,,,,,,,,,,bottom,,,,,,,,2491.5143934590014,2497.997154875,2497.99731825,2503.2467265000014,2503.2531747089997,2504.4968733339992,2504.4983569590004,2505.6972643340014,2505.6997562920005,2508.564441417002,mostlyred,FinalRedContrast,FinalGreenContrast,2508.5655243750007,2510.597761375,3,051226cm,001,2026-05-12_14h08.53.923,priming,,2026.1.3,60.00282025225579,2026-05-12 14h08.54.540040 -0700,
GR_Congruent_GreenCue_GreenProbe_Bottom,GreenGaborBoth.png,RedGaborBoth.png,GreenGaborDisappearBottom.png,RedGaborBoth.png,Green.mp3,green,bottom,124,44,1,,,,1,44,124,11,2510.613495166999,,,,,,,,,,,,,,,,bottom,,,,,,,,2510.597859542002,2524.480539209002,2524.480702375,2529.7302569169988,2529.7367689169987,2530.980341167,2530.981712167002,2531.947333459,2531.9489021670015,2533.097727917,mostlygreen,FinalRedContrast,FinalGreenContrast,2533.099170542002,2534.5478066670003,4,051226cm,001,2026-05-12_14h08.53.923,priming,,2026.1.3,60.00282025225579,2026-05-12 14h08.54.540040 -0700,
GR_Congruent_RedCue_RedProbe_Bottom,GreenGaborBoth.png,RedGaborBoth.png,GreenGaborBoth.png,RedGaborDisappearBottom.png,Red.mp3,red,bottom,125,45,1,,,,1,45,125,1,2534.563479917,,,,,,,,,,,,,,,,bottom,,,,,,,,2534.5494919170014,2535.8138394589987,2535.814005209002,2541.0636909999994,2541.070143249999,2542.3136900419995,2542.3150723340004,2543.630672542,2543.632378917002,2544.7477750420003,mostlyred,FinalRedContrast,FinalGreenContrast,2544.748952875001,2545.897944291999,3,051226cm,001,2026-05-12_14h08.53.923,priming,,2026.1.3,60.00282025225579,2026-05-12 14h08.54.540040 -0700,
GR_Incongruent_GreenCue_RedProbe_Bottom,GreenGaborBoth.png,RedGaborBoth.png,GreenGaborBoth.png,RedGaborDisappearBottom.png,Green.mp3,green,bottom,126,46,1,,,,1,46,126,7,2545.9136578340003,,,,,,,,,,,,,,,,bottom,,,,,,,,2545.89977,2546.597284167001,2546.597451542002,2551.8470641249987,2551.853575000001,2553.0971100419993,2553.099003916999,2554.730853249999,2554.732200667,2556.181237042001,mostlyred,FinalRedContrast,FinalGreenContrast,2556.182577333999,2558.314740500002,3,051226cm,001,2026-05-12_14h08.53.923,priming,,2026.1.3,60.00282025225579,2026-05-12 14h08.54.540040 -0700,
GR_Incongruent_GreenCue_RedProbe_Top,GreenGaborBoth.png,RedGaborBoth.png,GreenGaborBoth.png,RedGaborDisappearTop.png,Green.mp3,green,top,127,47,1,,,,1,47,127,14,2558.3303800840004,,,,,,,,,,,,,,,,bottom,,,,,,,,2558.31484775,2564.2806822089988,2564.2808479170017,2569.530419584,2569.5368339590023,2570.7804407500007,2570.7822045840003,2572.7808455840022,2572.782367167001,2575.947873375,mostlygreen,FinalRedContrast,FinalGreenContrast,2575.9491953340003,2577.9983162089993,3,051226cm,001,2026-05-12_14h08.53.923,priming,,2026.1.3,60.00282025225579,2026-05-12 14h08.54.540040 -0700,
GR_Congruent_RedCue_RedProbe_Bottom,GreenGaborBoth.png,RedGaborBoth.png,GreenGaborBoth.png,RedGaborDisappearBottom.png,Red.mp3,red,bottom,128,48,1,,,,1,48,128,17,2578.013738042002,,,,,,,,,,,,,,,,bottom,,,,,,,,2577.9998484589996,2594.297549875002,2594.297724625001,2599.547193000002,2599.553704124999,2600.7972457920005,2600.7988958339993,2603.114184459002,2603.115850041999,2604.9980001250005,allred,FinalRedContrast,FinalGreenContrast,2604.9993410839998,2606.8480262500016,4,051226cm,001,2026-05-12_14h08.53.923,priming,,2026.1.3,60.00282025225579,2026-05-12 14h08.54.540040 -0700,
GR_Incongruent_GreenCue_RedProbe_Bottom,GreenGaborBoth.png,RedGaborBoth.png,GreenGaborBoth.png,RedGaborDisappearBottom.png,Green.mp3,green,bottom,129,49,1,,,,1,49,129,15,2606.863785292,,,,,,,,,,,,,,,,bottom,,,,,,,,2606.849889459001,2607.7474518749987,2607.747617334,2612.9972301670023,2613.0035879999996,2614.2473092500004,2614.2495695840007,2615.314193792001,2615.315485542,2620.6980400840002,mostlyred,FinalRedContrast,FinalGreenContrast,2620.699272375001,2622.031365458999,3,051226cm,001,2026-05-12_14h08.53.923,priming,,2026.1.3,60.00282025225579,2026-05-12 14h08.54.540040 -0700,
GR_Congruent_GreenCue_GreenProbe_Top,GreenGaborBoth.png,RedGaborBoth.png,GreenGaborDisappearTop.png,RedGaborBoth.png,Green.mp3,green,top,130,50,1,,,,1,50,130,66,2622.0471239590006,,,,,,,,,,,,,,,,top,,,,,,,,2622.0314642500016,2622.9808547089997,2622.981023791999,2628.230576083999,2628.2369739999995,2629.480496291999,2629.482411208999,2631.1809504170014,2631.182239624999,2633.031226209001,mostlyred,FinalRedContrast,FinalGreenContrast,2633.033151333999,2634.564646458999,2,051226cm,001,2026-05-12_14h08.53.923,priming,,2026.1.3,60.00282025225579,2026-05-12 14h08.54.540040 -0700,
GR_Congruent_RedCue_RedProbe_Top,GreenGaborBoth.png,RedGaborBoth.png,GreenGaborBoth.png,RedGaborDisappearTop.png,Red.mp3,red,top,131,51,1,,,,1,51,131,48,2634.5804293750007,,,,,,,,,,,,,,,,top,,,,,,,,2634.5663746249993,2641.2976963750007,2641.297863459,2646.547278000002,2646.554037459002,2647.7973683339987,2647.798978709001,2648.8477541249995,2648.848755334002,2650.1315330420002,evensplit,FinalRedContrast,FinalGreenContrast,2650.1325053340006,2652.6981452090004,3,051226cm,001,2026-05-12_14h08.53.923,priming,,2026.1.3,60.00282025225579,2026-05-12 14h08.54.540040 -0700,
GR_Congruent_RedCue_RedProbe_Top,GreenGaborBoth.png,RedGaborBoth.png,GreenGaborBoth.png,RedGaborDisappearTop.png,Red.mp3,red,top,132,52,1,,,,1,52,132,16,2652.713957459,,,,,,,,,,,,,,,,top,,,,,,,,2652.698243250001,2659.2809939590006,2659.28115875,2664.5306966669996,2664.5370817500007,2665.780693375,2665.782397125,2666.7144318749997,2666.7162716250023,2668.698088459001,evensplit,FinalRedContrast,FinalGreenContrast,2668.6993218749994,2671.364763709,3,051226cm,001,2026-05-12_14h08.53.923,priming,,2026.1.3,60.00282025225579,2026-05-12 14h08.54.540040 -0700,
GR_Incongruent_GreenCue_RedProbe_Top,GreenGaborBoth.png,RedGaborBoth.png,GreenGaborBoth.png,RedGaborDisappearTop.png,Green.mp3,green,top,133,53,1,,,,1,53,133,54,2671.3805625000023,,,,,,,,,,,,,,,,top,,,,,,,,2671.3667495420013,2672.9979934170005,2672.998178500002,2678.2473382919998,2678.253841709,2679.4973578339996,2679.499029041999,2680.664440834,2680.665790709001,2682.398484542002,mostlyred,FinalRedContrast,FinalGreenContrast,2682.3991183750004,2685.3317102500005,3,051226cm,001,2026-05-12_14h08.53.923,priming,,2026.1.3,60.00282025225579,2026-05-12 14h08.54.540040 -0700,
GR_Incongruent_GreenCue_RedProbe_Bottom,GreenGaborBoth.png,RedGaborBoth.png,GreenGaborBoth.png,RedGaborDisappearBottom.png,Green.mp3,green,bottom,134,54,1,,,,1,54,134,63,2685.347343792,,,,,,,,,,,,,,,,bottom,,,,,,,,2685.3318085419996,2696.3310704590003,2696.3312325000006,2701.580809834002,2701.587276541999,2702.830724833999,2702.8325757919993,2703.397838834,2703.399470291999,2704.598250125,mostlyred,FinalRedContrast,FinalGreenContrast,2704.5994331250004,2706.0483165840014,3,051226cm,001,2026-05-12_14h08.53.923,priming,,2026.1.3,60.00282025225579,2026-05-12 14h08.54.540040 -0700,
