label,LstartingStim,RstartingStim,LvisualStim,RvisualStim,audioCue,visualCue,probe_loc,thisN,thisTrialN,thisRepN,staircase.thisTrialN,staircase.stepSize,staircase.intensity,trials.thisRepN,trials.thisTrialN,trials.thisN,trials.thisIndex,thisRow.t,notes,piloting,stim offset,continue_resp.keys,continue_resp.rt,continue_resp.duration,fixation.started,fixation.stopped,greenContrast,redContrast,adjusted_contrast.started,adjusted_contrast.stopped,staircase_response.started,staircase_response.stopped,stair_response,probe_response,staircase.response,prevTrial,isRed,isReversal,cumReversal,contrastArray,contrastAverage,start_trial.started,start_trial.stopped,cue.started,cue.stopped,probe.started,probe.stopped,probe_response.started,probe_response.stopped,subjective_response.started,subjective_response.stopped,subj_response,RedContrast,GreenContrast,vividness_response.started,vividness_response.stopped,vivid_response,participant,session,date,expName,expVersion,psychopyVersion,frameRate,expStart,
,,,,,,,,,,,,,,,,,,,,False,0.30299999999999994,,,,,,,,,,,,,,,,,,,,,,,,,,,,,,,,,,,,,051926ep,001,2026-05-19_14h17.57.365,priming,,2026.1.3,59.94300918620283,2026-05-19 14h17.57.679303 -0700,
,,,,,,,,,,,,,,,,,,,,,,space,23.860067833040375,None,,,,,,,,,,,,,,,,,,,,,,,,,,,,,,,,,,051926ep,001,2026-05-19_14h17.57.365,priming,,2026.1.3,59.94300918620283,2026-05-19 14h17.57.679303 -0700,
,,,,,,,,,,,0,0.2,0.5,,,,,46.63563691696618,,,,,,,46.61982583400095,47.61902366700815,0.5,0.5,47.62573958397843,49.369123374985065,49.374238958989736,53.66986654198263,mostlyred,red,1,1000,1,0,0,[],0,,,,,,,,,,,,,,,,,051926ep,001,2026-05-19_14h17.57.365,priming,,2026.1.3,59.94300918620283,2026-05-19 14h17.57.679303 -0700,
,,,,,,,,,,,1,0.1,0.3,,,,,53.685514500015415,,,,,,,53.67011674999958,54.66902370902244,0.7,0.3,54.672697375004645,56.41893166699447,56.42066587501904,58.11989312496735,allgreen,green,0,1,0,1,1,[],0,,,,,,,,,,,,,,,,,051926ep,001,2026-05-19_14h17.57.365,priming,,2026.1.3,59.94300918620283,2026-05-19 14h17.57.679303 -0700,
,,,,,,,,,,,2,0.1,0.4,,,,,58.13561558397487,,,,,,,58.12014395900769,59.11899954196997,0.6,0.4,59.1225851670024,60.86903991701547,60.8706397920032,63.03629737498704,mostlygreen,green,0,0,0,0,1,[],0,,,,,,,,,,,,,,,,,051926ep,001,2026-05-19_14h17.57.365,priming,,2026.1.3,59.94300918620283,2026-05-19 14h17.57.679303 -0700,
,,,,,,,,,,,3,0.1,0.5,,,,,63.052384083974175,,,,,,,63.036544499977026,64.03565766697284,0.5,0.5,64.03916608396685,65.78568849997828,65.78738287498709,66.9199288340169,mostlygreen,green,0,0,0,0,1,[],0,,,,,,,,,,,,,,,,,051926ep,001,2026-05-19_14h17.57.365,priming,,2026.1.3,59.94300918620283,2026-05-19 14h17.57.679303 -0700,
,,,,,,,,,,,4,0.1,0.6,,,,,66.93552583397832,,,,,,,66.920183292008,67.9189728749916,0.4,0.6,67.92257295898162,69.66901358397445,69.67097737500444,70.31983695900999,mostlyred,red,1,0,1,1,2,[],0,,,,,,,,,,,,,,,,,051926ep,001,2026-05-19_14h17.57.365,priming,,2026.1.3,59.94300918620283,2026-05-19 14h17.57.679303 -0700,
,,,,,,,,,,,5,0.05,0.5,,,,,70.3355737500242,,,,,,,70.32008237502305,71.31907824997324,0.5,0.5,71.32257274998119,73.0691678749863,73.07045212498633,75.05316379200667,mostlygreen,green,0,1,0,1,3,[],0,,,,,,,,,,,,,,,,,051926ep,001,2026-05-19_14h17.57.365,priming,,2026.1.3,59.94300918620283,2026-05-19 14h17.57.679303 -0700,
,,,,,,,,,,,6,0.05,0.55,,,,,75.06902504200116,,,,,,,75.05340608401457,76.05249204201391,0.44999999999999996,0.55,76.05595662497217,77.80246729200007,77.80414174997713,78.45315958402352,mostlyred,red,1,0,1,1,4,[],0,,,,,,,,,,,,,,,,,051926ep,001,2026-05-19_14h17.57.365,priming,,2026.1.3,59.94300918620283,2026-05-19 14h17.57.679303 -0700,
,,,,,,,,,,,7,0.025,0.5,,,,,78.46905504202005,,,,,,,78.45340187498368,79.45248520898167,0.5,0.5,79.45598675002111,81.20244174997788,81.20374999998603,82.53654454200296,mostlygreen,green,0,1,0,1,5,[],0,,,,,,,,,,,,,,,,,051926ep,001,2026-05-19_14h17.57.365,priming,,2026.1.3,59.94300918620283,2026-05-19 14h17.57.679303 -0700,
,,,,,,,,,,,8,0.025,0.525,,,,,82.55236470897216,,,,,,,82.53681933396729,83.53575070900843,0.475,0.525,83.53925204201369,85.28585020900937,85.2877284999704,86.56993125000736,mostlyred,red,1,0,1,1,6,[0.525],0.525,,,,,,,,,,,,,,,,,051926ep,001,2026-05-19_14h17.57.365,priming,,2026.1.3,59.94300918620283,2026-05-19 14h17.57.679303 -0700,
,,,,,,,,,,,9,0.025,0.5,,,,,86.5856312920223,,,,,,,86.57019983400824,87.56925624998985,0.5,0.5,87.57277479197364,89.31904620898422,89.32052016700618,90.81978754198644,mostlyred,red,1,1,1,0,6,[0.525],0.525,,,,,,,,,,,,,,,,,051926ep,001,2026-05-19_14h17.57.365,priming,,2026.1.3,59.94300918620283,2026-05-19 14h17.57.679303 -0700,
,,,,,,,,,,,10,0.025,0.475,,,,,90.8357461669948,,,,,,,90.82003166701179,91.81909654202173,0.525,0.475,91.8225403749966,93.56910737499129,93.570760875009,94.23641379200853,mostlyred,red,1,1,1,0,6,[0.525],0.525,,,,,,,,,,,,,,,,,051926ep,001,2026-05-19_14h17.57.365,priming,,2026.1.3,59.94300918620283,2026-05-19 14h17.57.679303 -0700,
,,,,,,,,,,,11,0.025,0.44999999999999996,,,,,94.2523354999721,,,,,,,94.23665912501747,95.23583391698776,0.55,0.44999999999999996,95.23930995899718,96.98581908398774,96.98742304201005,98.13662891701097,mostlygreen,green,0,1,0,1,7,"[0.525, 0.44999999999999996]",0.4875,,,,,,,,,,,,,,,,,051926ep,001,2026-05-19_14h17.57.365,priming,,2026.1.3,59.94300918620283,2026-05-19 14h17.57.679303 -0700,
,,,,,,,,,,,12,0.025,0.475,,,,,98.15245895896805,,,,,,,98.13687624997692,99.13594725000439,0.525,0.475,99.13943024998298,100.885993917007,100.8874038750073,103.43667804199504,mostlygreen,green,0,0,0,0,7,"[0.525, 0.44999999999999996]",0.4875,,,,,,,,,,,,,,,,,051926ep,001,2026-05-19_14h17.57.365,priming,,2026.1.3,59.94300918620283,2026-05-19 14h17.57.679303 -0700,
,,,,,,,,,,,13,0.025,0.5,,,,,103.45249991700985,,,,,,,103.43692233401816,104.43588158400962,0.5,0.5,104.43939429201419,106.18597141699865,106.18772058398463,107.3199230839964,mostlyred,red,1,0,1,1,8,"[0.525, 0.44999999999999996, 0.5]",0.4916666666666667,,,,,,,,,,,,,,,,,051926ep,001,2026-05-19_14h17.57.365,priming,,2026.1.3,59.94300918620283,2026-05-19 14h17.57.679303 -0700,
,,,,,,,,,,,14,0.025,0.475,,,,,107.33590716699837,,,,,,,107.3201847919845,108.31917716696626,0.525,0.475,108.32260329200653,110.06930991698755,110.0705997920013,111.18657237500884,mostlygreen,green,0,1,0,1,9,"[0.525, 0.44999999999999996, 0.5, 0.475]",0.48750000000000004,,,,,,,,,,,,,,,,,051926ep,001,2026-05-19_14h17.57.365,priming,,2026.1.3,59.94300918620283,2026-05-19 14h17.57.679303 -0700,
,,,,,,,,,,,15,0.025,0.5,,,,,111.20255154196639,,,,,,,111.18682075000834,112.18595237500267,0.5,0.5,112.18937216699123,113.93595274997642,113.9377222500043,115.62000437499955,mostlyred,red,1,0,1,1,10,"[0.525, 0.44999999999999996, 0.5, 0.475, 0.5]",0.49000000000000005,,,,,,,,,,,,,,,,,051926ep,001,2026-05-19_14h17.57.365,priming,,2026.1.3,59.94300918620283,2026-05-19 14h17.57.679303 -0700,
,,,,,,,,,,,16,0.025,0.475,,,,,115.63594120898051,,,,,,,115.62026200001128,116.61927595897578,0.525,0.475,116.62279416702222,118.36925870901905,118.37105566699756,119.08667591697304,mostlyred,red,1,1,1,0,10,"[0.525, 0.44999999999999996, 0.5, 0.475, 0.5]",0.49000000000000005,,,,,,,,,,,,,,,,,051926ep,001,2026-05-19_14h17.57.365,priming,,2026.1.3,59.94300918620283,2026-05-19 14h17.57.679303 -0700,
,,,,,,,,,,,17,0.025,0.44999999999999996,,,,,119.10257804201683,,,,,,,119.08692291699117,120.08602945902385,0.55,0.44999999999999996,120.08946333400672,121.83589124999708,121.83767083397834,123.41993704199558,mostlyred,red,1,1,1,0,10,"[0.525, 0.44999999999999996, 0.5, 0.475, 0.5]",0.49000000000000005,,,,,,,,,,,,,,,,,051926ep,001,2026-05-19_14h17.57.365,priming,,2026.1.3,59.94300918620283,2026-05-19 14h17.57.679303 -0700,
,,,,,,,,,,,18,0.025,0.42499999999999993,,,,,123.43591033399571,,,,,,,123.4202214590041,124.41920829197625,0.5750000000000001,0.42499999999999993,124.42264116700971,126.16936570900725,126.17119475000072,128.50393058400368,mostlygreen,green,0,1,0,1,11,"[0.525, 0.44999999999999996, 0.5, 0.475, 0.5, 0.42499999999999993]",0.4791666666666667,,,,,,,,,,,,,,,,,051926ep,001,2026-05-19_14h17.57.365,priming,,2026.1.3,59.94300918620283,2026-05-19 14h17.57.679303 -0700,
,,,,,,,,,,,19,0.025,0.44999999999999996,,,,,128.5192605839693,,,,,,,128.50419675000012,129.50282916700235,0.55,0.44999999999999996,129.50631608400727,131.25266008399194,131.25458416697802,133.07017279200954,mostlygreen,green,0,0,0,0,11,"[0.525, 0.44999999999999996, 0.5, 0.475, 0.5, 0.42499999999999993]",0.4791666666666667,,,,,,,,,,,,,,,,,051926ep,001,2026-05-19_14h17.57.365,priming,,2026.1.3,59.94300918620283,2026-05-19 14h17.57.679303 -0700,
,,,,,,,,,,,20,0.025,0.475,,,,,133.08594387501944,,,,,,,133.07046716701007,134.06940495898016,0.525,0.475,134.07290099997772,135.8194101669942,135.8211137499893,137.0872414999758,mostlygreen,green,0,0,0,0,11,"[0.525, 0.44999999999999996, 0.5, 0.475, 0.5, 0.42499999999999993]",0.4791666666666667,,,,,,,,,,,,,,,,,051926ep,001,2026-05-19_14h17.57.365,priming,,2026.1.3,59.94300918620283,2026-05-19 14h17.57.679303 -0700,
,,,,,,,,,,,21,0.025,0.5,,,,,137.1027364169713,,,,,,,137.08749458397506,138.08608058397658,0.5,0.5,138.08957399998326,139.8360690419795,139.83740345900878,141.17006254201988,mostlyred,red,1,0,1,1,12,"[0.525, 0.44999999999999996, 0.5, 0.475, 0.5, 0.42499999999999993, 0.5]",0.48214285714285715,,,,,,,,,,,,,,,,,051926ep,001,2026-05-19_14h17.57.365,priming,,2026.1.3,59.94300918620283,2026-05-19 14h17.57.679303 -0700,
,,,,,,,,,,,22,0.025,0.475,,,,,141.1859026249731,,,,,,,141.17031229200074,142.16944120900007,0.525,0.475,142.1729175419896,143.9194016670226,143.92094387498219,145.02009016700322,mostlygreen,green,0,1,0,1,13,"[0.525, 0.44999999999999996, 0.5, 0.475, 0.5, 0.42499999999999993, 0.5, 0.475]",0.48125,,,,,,,,,,,,,,,,,051926ep,001,2026-05-19_14h17.57.365,priming,,2026.1.3,59.94300918620283,2026-05-19 14h17.57.679303 -0700,
,,,,,,,,,,,23,0.025,0.5,,,,,145.03589499997906,,,,,,,145.0203431249829,146.01944262499455,0.5,0.5,146.02294983400498,147.76938520901604,147.77099529199768,149.05356445896905,mostlygreen,green,0,0,0,0,13,"[0.525, 0.44999999999999996, 0.5, 0.475, 0.5, 0.42499999999999993, 0.5, 0.475]",0.48125,,,,,,,,,,,,,,,,,051926ep,001,2026-05-19_14h17.57.365,priming,,2026.1.3,59.94300918620283,2026-05-19 14h17.57.679303 -0700,
,,,,,,,,,,,24,0.025,0.525,,,,,149.069391291996,,,,,,,149.05387699999847,150.05269862501882,0.475,0.525,150.0562376669841,151.80272162501933,151.804582791985,154.12025083397748,mostlyred,red,1,0,1,1,14,"[0.525, 0.44999999999999996, 0.5, 0.475, 0.5, 0.42499999999999993, 0.5, 0.475, 0.525]",0.4861111111111111,,,,,,,,,,,,,,,,,051926ep,001,2026-05-19_14h17.57.365,priming,,2026.1.3,59.94300918620283,2026-05-19 14h17.57.679303 -0700,
,,,,,,,,,,,25,0.025,0.5,,,,,154.13612325000577,,,,,,,154.12050545896636,155.1195490839891,0.5,0.5,155.12302429199917,156.86944479198428,156.87109074997716,158.9202914169873,mostlyred,red,1,1,1,0,14,"[0.525, 0.44999999999999996, 0.5, 0.475, 0.5, 0.42499999999999993, 0.5, 0.475, 0.525]",0.4861111111111111,,,,,,,,,,,,,,,,,051926ep,001,2026-05-19_14h17.57.365,priming,,2026.1.3,59.94300918620283,2026-05-19 14h17.57.679303 -0700,
,,,,,,,,,,,26,0.025,0.475,,,,,158.9361311669927,,,,,,,158.92055787501158,159.91948295896873,0.525,0.475,159.92296237498522,161.66949479200412,161.67125683400081,163.52024858398363,mostlyred,red,1,1,1,0,14,"[0.525, 0.44999999999999996, 0.5, 0.475, 0.5, 0.42499999999999993, 0.5, 0.475, 0.525]",0.4861111111111111,,,,,,,,,,,,,,,,,051926ep,001,2026-05-19_14h17.57.365,priming,,2026.1.3,59.94300918620283,2026-05-19 14h17.57.679303 -0700,
,,,,,,,,,,,27,0.025,0.44999999999999996,,,,,163.53600683400873,,,,,,,163.52049866697052,164.5195136250113,0.55,0.44999999999999996,164.52297674998408,166.26951329200529,166.27129062497988,167.38689179200446,mostlygreen,green,0,1,0,1,15,"[0.525, 0.44999999999999996, 0.5, 0.475, 0.5, 0.42499999999999993, 0.5, 0.475, 0.525, 0.44999999999999996]",0.48250000000000004,,,,,,,,,,,,,,,,,051926ep,001,2026-05-19_14h17.57.365,priming,,2026.1.3,59.94300918620283,2026-05-19 14h17.57.679303 -0700,
,,,,,,,,,,,28,0.025,0.475,,,,,167.4027879589703,,,,,,,167.38714320899453,168.38619262498105,0.525,0.475,168.3896002920228,170.13609562499914,170.13808837498073,171.5036058339756,mostlyred,red,1,0,1,1,16,"[0.525, 0.44999999999999996, 0.5, 0.475, 0.5, 0.42499999999999993, 0.5, 0.475, 0.525, 0.44999999999999996, 0.475]",0.4818181818181818,,,,,,,,,,,,,,,,,051926ep,001,2026-05-19_14h17.57.365,priming,,2026.1.3,59.94300918620283,2026-05-19 14h17.57.679303 -0700,
,,,,,,,,,,,29,0.025,0.44999999999999996,,,,,171.51950012496673,,,,,,,171.5038614589721,172.50279941700865,0.55,0.44999999999999996,172.5062949170242,174.2528575839824,174.25417937501334,176.22027270897524,mostlyred,red,1,1,1,0,16,"[0.525, 0.44999999999999996, 0.5, 0.475, 0.5, 0.42499999999999993, 0.5, 0.475, 0.525, 0.44999999999999996, 0.475]",0.4818181818181818,,,,,,,,,,,,,,,,,051926ep,001,2026-05-19_14h17.57.365,priming,,2026.1.3,59.94300918620283,2026-05-19 14h17.57.679303 -0700,
,,,,,,,,,,,30,0.025,0.42499999999999993,,,,,176.236143334012,,,,,,,176.2205260419869,177.2195383340004,0.5750000000000001,0.42499999999999993,177.22301979199983,178.96948845899897,178.97132091701496,180.30362424999475,mostlygreen,green,0,1,0,1,17,"[0.525, 0.44999999999999996, 0.5, 0.475, 0.5, 0.42499999999999993, 0.5, 0.475, 0.525, 0.44999999999999996, 0.475, 0.42499999999999993]",0.4770833333333333,,,,,,,,,,,,,,,,,051926ep,001,2026-05-19_14h17.57.365,priming,,2026.1.3,59.94300918620283,2026-05-19 14h17.57.679303 -0700,
,,,,,,,,,,,31,0.025,0.44999999999999996,,,,,180.31947491702158,,,,,,,180.30387529201107,181.30294341698755,0.55,0.44999999999999996,181.3064086670056,183.05299612501403,183.0546383339679,184.60377087502275,mostlyred,red,1,0,1,1,18,"[0.525, 0.44999999999999996, 0.5, 0.475, 0.5, 0.42499999999999993, 0.5, 0.475, 0.525, 0.44999999999999996, 0.475, 0.42499999999999993, 0.44999999999999996]",0.475,,,,,,,,,,,,,,,,,051926ep,001,2026-05-19_14h17.57.365,priming,,2026.1.3,59.94300918620283,2026-05-19 14h17.57.679303 -0700,
,,,,,,,,,,,32,0.025,0.42499999999999993,,,,,184.61957920901477,,,,,,,184.60404299997026,185.60300929198274,0.5750000000000001,0.42499999999999993,185.60650900000473,187.35297295899363,187.35460912500275,189.3038250419777,mostlyred,red,1,1,1,0,18,"[0.525, 0.44999999999999996, 0.5, 0.475, 0.5, 0.42499999999999993, 0.5, 0.475, 0.525, 0.44999999999999996, 0.475, 0.42499999999999993, 0.44999999999999996]",0.475,,,,,,,,,,,,,,,,,051926ep,001,2026-05-19_14h17.57.365,priming,,2026.1.3,59.94300918620283,2026-05-19 14h17.57.679303 -0700,
,,,,,,,,,,,33,0.025,0.3999999999999999,,,,,189.31960429198807,,,,,,,189.3041305000079,190.30312495899852,0.6000000000000001,0.3999999999999999,190.30654712498654,192.05298166698776,192.05426587502006,193.43703766696854,mostlyred,red,1,1,1,0,18,"[0.525, 0.44999999999999996, 0.5, 0.475, 0.5, 0.42499999999999993, 0.5, 0.475, 0.525, 0.44999999999999996, 0.475, 0.42499999999999993, 0.44999999999999996]",0.475,,,,,,,,,,,,,,,,,051926ep,001,2026-05-19_14h17.57.365,priming,,2026.1.3,59.94300918620283,2026-05-19 14h17.57.679303 -0700,
,,,,,,,,,,,34,0.025,0.3749999999999999,,,,,193.45287766697584,,,,,,,193.43735812499654,194.4361891669687,0.6250000000000001,0.3749999999999999,194.4396238339832,196.18641187500907,196.18780091701774,197.25371637498029,mostlygreen,green,0,1,0,1,19,"[0.525, 0.44999999999999996, 0.5, 0.475, 0.5, 0.42499999999999993, 0.5, 0.475, 0.525, 0.44999999999999996, 0.475, 0.42499999999999993, 0.44999999999999996, 0.3749999999999999]",0.46785714285714286,,,,,,,,,,,,,,,,,051926ep,001,2026-05-19_14h17.57.365,priming,,2026.1.3,59.94300918620283,2026-05-19 14h17.57.679303 -0700,
,,,,,,,,,,,35,0.025,0.3999999999999999,,,,,197.26949162501842,,,,,,,197.25396662502317,198.25302416697377,0.6000000000000001,0.3999999999999999,198.2564291669987,200.00308458402287,200.00452379201306,201.00367483397713,mostlyred,red,1,0,1,1,20,"[0.525, 0.44999999999999996, 0.5, 0.475, 0.5, 0.42499999999999993, 0.5, 0.475, 0.525, 0.44999999999999996, 0.475, 0.42499999999999993, 0.44999999999999996, 0.3749999999999999, 0.3999999999999999]",0.46333333333333326,,,,,,,,,,,,,,,,,051926ep,001,2026-05-19_14h17.57.365,priming,,2026.1.3,59.94300918620283,2026-05-19 14h17.57.679303 -0700,
,,,,,,,,,,,36,0.025,0.3749999999999999,,,,,201.01964750001207,,,,,,,201.00392404198647,202.00294937501894,0.6250000000000001,0.3749999999999999,202.00633212499088,203.75306637497852,203.7548249589745,205.7370510000037,mostlyred,red,1,1,1,0,20,"[0.525, 0.44999999999999996, 0.5, 0.475, 0.5, 0.42499999999999993, 0.5, 0.475, 0.525, 0.44999999999999996, 0.475, 0.42499999999999993, 0.44999999999999996, 0.3749999999999999, 0.3999999999999999]",0.46333333333333326,,,,,,,,,,,,,,,,,051926ep,001,2026-05-19_14h17.57.365,priming,,2026.1.3,59.94300918620283,2026-05-19 14h17.57.679303 -0700,
,,,,,,,,,,,37,0.025,0.34999999999999987,,,,,205.75299941701815,,,,,,,205.7373614590033,206.73639912501676,0.6500000000000001,0.34999999999999987,206.73987262498122,208.4862529169768,208.4877206669771,209.98713091696845,mostlygreen,green,0,1,0,1,21,"[0.44999999999999996, 0.5, 0.475, 0.5, 0.42499999999999993, 0.5, 0.475, 0.525, 0.44999999999999996, 0.475, 0.42499999999999993, 0.44999999999999996, 0.3749999999999999, 0.3999999999999999, 0.34999999999999987]",0.45166666666666655,,,,,,,,,,,,,,,,,051926ep,001,2026-05-19_14h17.57.365,priming,,2026.1.3,59.94300918620283,2026-05-19 14h17.57.679303 -0700,
,,,,,,,,,,,38,0.025,0.3749999999999999,,,,,210.0030278749764,,,,,,,209.9873900419916,210.98646174999885,0.6250000000000001,0.3749999999999999,210.98993579199305,212.73641587496968,212.73795258399332,214.48752349999268,mostlygreen,green,0,0,0,0,21,"[0.44999999999999996, 0.5, 0.475, 0.5, 0.42499999999999993, 0.5, 0.475, 0.525, 0.44999999999999996, 0.475, 0.42499999999999993, 0.44999999999999996, 0.3749999999999999, 0.3999999999999999, 0.34999999999999987]",0.45166666666666655,,,,,,,,,,,,,,,,,051926ep,001,2026-05-19_14h17.57.365,priming,,2026.1.3,59.94300918620283,2026-05-19 14h17.57.679303 -0700,
,,,,,,,,,,,39,0.025,0.3999999999999999,,,,,214.5029993749922,,,,,,,214.48777304199757,215.48651808401337,0.6000000000000001,0.3999999999999999,215.49001050001243,217.2364233339904,217.238288499997,218.2371441249852,mostlygreen,green,0,0,0,0,21,"[0.44999999999999996, 0.5, 0.475, 0.5, 0.42499999999999993, 0.5, 0.475, 0.525, 0.44999999999999996, 0.475, 0.42499999999999993, 0.44999999999999996, 0.3749999999999999, 0.3999999999999999, 0.34999999999999987]",0.45166666666666655,,,,,,,,,,,,,,,,,051926ep,001,2026-05-19_14h17.57.365,priming,,2026.1.3,59.94300918620283,2026-05-19 14h17.57.679303 -0700,
,,,,,,,,,,,,,,,,,,,,,,space,50.51049641595455,None,,,,,,,,,,,,,,,,,,,,,,,,,,,,,,,,,,051926ep,001,2026-05-19_14h17.57.365,priming,,2026.1.3,59.94300918620283,2026-05-19 14h17.57.679303 -0700,
GR_Congruent_RedCue_RedProbe_Top,GreenGaborBoth.png,RedGaborBoth.png,GreenGaborBoth.png,RedGaborDisappearTop.png,Red.mp3,red,top,0,0,0,,,,0,0,0,48,268.8204631669796,,,,,,,,,,,,,,,,top,,,,,,,,268.81316062499536,271.20366441697115,271.20382591697853,276.45342312497087,276.46228154201526,277.70341725001344,277.7051107499865,279.62050633400213,279.6220587089774,281.5042024999857,mostlyred,FinalRedContrast,FinalGreenContrast,281.50454412499676,284.27175720897503,1,051926ep,001,2026-05-19_14h17.57.365,priming,,2026.1.3,59.94300918620283,2026-05-19 14h17.57.679303 -0700,
GR_Incongruent_RedCue_GreenProbe_Top,GreenGaborBoth.png,RedGaborBoth.png,GreenGaborDisappearTop.png,RedGaborBoth.png,Red.mp3,red,top,1,1,0,,,,0,1,1,36,284.2867037089891,,,,,,,,,,,,,,,,bottom,,,,,,,,284.27186870900914,331.27059912501136,331.2707660419983,336.52030450000893,336.52878979197703,337.77034420898417,337.77180562500143,339.98751329199877,339.98893720901106,343.6377704589977,mostlygreen,FinalRedContrast,FinalGreenContrast,343.6389252920053,345.22108795901295,2,051926ep,001,2026-05-19_14h17.57.365,priming,,2026.1.3,59.94300918620283,2026-05-19 14h17.57.679303 -0700,
GR_Congruent_GreenCue_GreenProbe_Bottom,GreenGaborBoth.png,RedGaborBoth.png,GreenGaborDisappearBottom.png,RedGaborBoth.png,Green.mp3,green,bottom,2,2,0,,,,0,2,2,43,345.2368950420059,,,,,,,,,,,,,,,,bottom,,,,,,,,345.2234956250177,353.20408549997956,353.2042500419775,358.4538234170177,358.4618363339687,359.7038606670103,359.7050710420008,360.7708417089889,360.77244458399946,364.0549658340169,mostlygreen,FinalRedContrast,FinalGreenContrast,364.055285874987,369.0045374169713,2,051926ep,001,2026-05-19_14h17.57.365,priming,,2026.1.3,59.94300918620283,2026-05-19 14h17.57.679303 -0700,
GR_Incongruent_RedCue_GreenProbe_Top,GreenGaborBoth.png,RedGaborBoth.png,GreenGaborDisappearTop.png,RedGaborBoth.png,Red.mp3,red,top,3,3,0,,,,0,3,3,4,369.02033716702135,,,,,,,,,,,,,,,,top,,,,,,,,369.00620437500766,370.92079933400964,370.92097087501315,376.1705042499816,376.17820266698254,377.42031545902137,377.4217069169972,378.20421754202107,378.20573749998584,380.87183337501483,mostlygreen,FinalRedContrast,FinalGreenContrast,380.87211608397774,386.82140866701957,2,051926ep,001,2026-05-19_14h17.57.365,priming,,2026.1.3,59.94300918620283,2026-05-19 14h17.57.679303 -0700,
GR_Incongruent_RedCue_GreenProbe_Bottom,GreenGaborBoth.png,RedGaborBoth.png,GreenGaborDisappearBottom.png,RedGaborBoth.png,Red.mp3,red,bottom,4,4,0,,,,0,4,4,29,386.8370735839708,,,,,,,,,,,,,,,,bottom,,,,,,,,386.82150849996833,389.5041688749916,389.5043326250161,394.7538852089783,394.7602627919987,396.0038382500061,396.0055846250034,397.4713661670103,397.4717514999793,402.20479545899434,evensplit,FinalRedContrast,FinalGreenContrast,402.2059213339817,403.6547028750065,2,051926ep,001,2026-05-19_14h17.57.365,priming,,2026.1.3,59.94300918620283,2026-05-19 14h17.57.679303 -0700,
GR_Incongruent_GreenCue_RedProbe_Top,GreenGaborBoth.png,RedGaborBoth.png,GreenGaborBoth.png,RedGaborDisappearTop.png,Green.mp3,green,top,5,5,0,,,,0,5,5,70,403.67052975000115,,,,,,,,,,,,,,,,top,,,,,,,,403.6566076669842,404.4375004589674,404.4376672920189,409.68727666698396,409.6947689590161,410.93740554200485,410.93907937500626,412.4043933339999,412.4060100839706,414.40489695902215,mostlygreen,FinalRedContrast,FinalGreenContrast,414.4060370840016,415.9049263750203,2,051926ep,001,2026-05-19_14h17.57.365,priming,,2026.1.3,59.94300918620283,2026-05-19 14h17.57.679303 -0700,
GR_Congruent_GreenCue_GreenProbe_Top,GreenGaborBoth.png,RedGaborBoth.png,GreenGaborDisappearTop.png,RedGaborBoth.png,Green.mp3,green,top,6,6,0,,,,0,6,6,18,415.92064483399736,,,,,,,,,,,,,,,,top,,,,,,,,415.90503579197684,416.8209654999664,416.82113195897546,422.07070949999616,422.0781909999787,423.32069633400533,423.3223528750241,424.90442783397157,424.90597054199316,427.5049024170148,mostlygreen,FinalRedContrast,FinalGreenContrast,427.5060286250082,430.4715042919852,2,051926ep,001,2026-05-19_14h17.57.365,priming,,2026.1.3,59.94300918620283,2026-05-19 14h17.57.679303 -0700,
GR_Congruent_GreenCue_GreenProbe_Bottom,GreenGaborBoth.png,RedGaborBoth.png,GreenGaborDisappearBottom.png,RedGaborBoth.png,Green.mp3,green,bottom,7,7,0,,,,0,7,7,11,430.4872778750141,,,,,,,,,,,,,,,,bottom,,,,,,,,430.4716056250036,431.43778179201763,431.4379481669748,436.6873222090071,436.69362716696924,437.93732791696675,437.9389328749967,438.5544547919999,438.55612366698915,439.8553184589837,mostlygreen,FinalRedContrast,FinalGreenContrast,439.85558008396765,441.10505704197567,2,051926ep,001,2026-05-19_14h17.57.365,priming,,2026.1.3,59.94300918620283,2026-05-19 14h17.57.679303 -0700,
GR_Incongruent_RedCue_GreenProbe_Bottom,GreenGaborBoth.png,RedGaborBoth.png,GreenGaborDisappearBottom.png,RedGaborBoth.png,Red.mp3,red,bottom,8,8,0,,,,0,8,8,37,441.12078237498645,,,,,,,,,,,,,,,,bottom,,,,,,,,441.1066418749979,441.8710896670236,441.8712567919865,447.1208593340125,447.1272660419927,448.3708472920116,448.3722895840183,449.487997542019,449.48941629199544,451.80495479202364,mostlygreen,FinalRedContrast,FinalGreenContrast,451.805923042004,455.25542079197476,2,051926ep,001,2026-05-19_14h17.57.365,priming,,2026.1.3,59.94300918620283,2026-05-19 14h17.57.679303 -0700,
GR_Incongruent_RedCue_GreenProbe_Bottom,GreenGaborBoth.png,RedGaborBoth.png,GreenGaborDisappearBottom.png,RedGaborBoth.png,Red.mp3,red,bottom,9,9,0,,,,0,9,9,45,455.2707670839736,,,,,,,,,,,,,,,,bottom,,,,,,,,455.2555188339902,460.0711802089936,460.07134333398426,465.32079920900287,465.32715216698125,466.57086933398386,466.57245579198934,468.021241083974,468.02276520896703,469.57176316698315,mostlygreen,FinalRedContrast,FinalGreenContrast,469.5729456249974,472.4050999589963,2,051926ep,001,2026-05-19_14h17.57.365,priming,,2026.1.3,59.94300918620283,2026-05-19 14h17.57.679303 -0700,
GR_Congruent_GreenCue_GreenProbe_Top,GreenGaborBoth.png,RedGaborBoth.png,GreenGaborDisappearTop.png,RedGaborBoth.png,Green.mp3,green,top,10,10,0,,,,0,10,10,34,472.42085495899664,,,,,,,,,,,,,,,,top,,,,,,,,472.4069784170133,473.0379917920218,473.0381600839901,478.2875372499693,478.2950716249761,479.53762070898665,479.53903670900036,480.5380794170196,480.5391567500192,485.2051377919852,mostlygreen,FinalRedContrast,FinalGreenContrast,485.20622654201,486.5050847919774,2,051926ep,001,2026-05-19_14h17.57.365,priming,,2026.1.3,59.94300918620283,2026-05-19 14h17.57.679303 -0700,
GR_Congruent_GreenCue_GreenProbe_Bottom,GreenGaborBoth.png,RedGaborBoth.png,GreenGaborDisappearBottom.png,RedGaborBoth.png,Green.mp3,green,bottom,11,11,0,,,,0,11,11,59,486.52084075001767,,,,,,,,,,,,,,,,bottom,,,,,,,,486.50518370897043,487.0879747919971,487.0881407500128,492.3376026250189,492.3440251669963,493.5877217919915,493.58945104200393,494.67146320897155,494.6722294589854,496.02173137501813,mostlygreen,FinalRedContrast,FinalGreenContrast,496.0229149169754,497.2884892919683,2,051926ep,001,2026-05-19_14h17.57.365,priming,,2026.1.3,59.94300918620283,2026-05-19 14h17.57.679303 -0700,
GR_Incongruent_RedCue_GreenProbe_Bottom,GreenGaborBoth.png,RedGaborBoth.png,GreenGaborDisappearBottom.png,RedGaborBoth.png,Red.mp3,red,bottom,12,12,0,,,,0,12,12,5,497.3042011249927,,,,,,,,,,,,,,,,bottom,,,,,,,,497.2901480839937,500.7380007089814,500.7381661249674,505.9877397089731,505.99649458401836,507.23780275002355,507.2395494999946,508.6715557919815,508.6732157089864,509.3053309589741,mostlygreen,FinalRedContrast,FinalGreenContrast,509.3057878339896,511.3218634169898,2,051926ep,001,2026-05-19_14h17.57.365,priming,,2026.1.3,59.94300918620283,2026-05-19 14h17.57.679303 -0700,
GR_Congruent_RedCue_RedProbe_Bottom,GreenGaborBoth.png,RedGaborBoth.png,GreenGaborBoth.png,RedGaborDisappearBottom.png,Red.mp3,red,bottom,13,13,0,,,,0,13,13,17,511.33769458398456,,,,,,,,,,,,,,,,bottom,,,,,,,,511.3219818340149,512.4384657500195,512.4386381669901,517.6877323340159,517.6960737920017,518.9378363749711,518.9394836669671,520.8214956669835,520.8231566670001,522.4389691670076,mostlyred,FinalRedContrast,FinalGreenContrast,522.439271375013,523.7218923749751,2,051926ep,001,2026-05-19_14h17.57.365,priming,,2026.1.3,59.94300918620283,2026-05-19 14h17.57.679303 -0700,
GR_Incongruent_GreenCue_RedProbe_Bottom,GreenGaborBoth.png,RedGaborBoth.png,GreenGaborBoth.png,RedGaborDisappearBottom.png,Green.mp3,green,bottom,14,14,0,,,,0,14,14,31,523.7376593750087,,,,,,,,,,,,,,,,bottom,,,,,,,,523.7237675000215,524.3214147500112,524.3215806669905,529.5711970839766,529.577722417016,530.8212330840179,530.8228409999865,532.0553180419956,532.0556351669948,533.5557904589805,mostlyred,FinalRedContrast,FinalGreenContrast,533.5561183749815,534.805358542013,2,051926ep,001,2026-05-19_14h17.57.365,priming,,2026.1.3,59.94300918620283,2026-05-19 14h17.57.679303 -0700,
GR_Incongruent_GreenCue_RedProbe_Top,GreenGaborBoth.png,RedGaborBoth.png,GreenGaborBoth.png,RedGaborDisappearTop.png,Green.mp3,green,top,15,15,0,,,,0,15,15,14,534.8211299169925,,,,,,,,,,,,,,,,bottom,,,,,,,,534.8054873339715,535.4551042499952,535.4552916670218,540.704603124992,540.712412874971,541.9545963749988,541.9558726249961,542.3216280419729,542.3228402090026,544.6887188340188,mostlyred,FinalRedContrast,FinalGreenContrast,544.6898627919727,546.2386614590068,2,051926ep,001,2026-05-19_14h17.57.365,priming,,2026.1.3,59.94300918620283,2026-05-19 14h17.57.679303 -0700,
GR_Congruent_RedCue_RedProbe_Bottom,GreenGaborBoth.png,RedGaborBoth.png,GreenGaborBoth.png,RedGaborDisappearBottom.png,Red.mp3,red,bottom,16,16,0,,,,0,16,16,57,546.2544672500226,,,,,,,,,,,,,,,,bottom,,,,,,,,546.2403827920207,546.8214910840034,546.821656709013,552.0711304590222,552.0776780840242,553.3211582499789,553.322933916992,554.6217712920043,554.623310333991,557.205376124999,mostlyred,FinalRedContrast,FinalGreenContrast,557.2063678749837,558.30554999999,2,051926ep,001,2026-05-19_14h17.57.365,priming,,2026.1.3,59.94300918620283,2026-05-19 14h17.57.679303 -0700,
GR_Congruent_RedCue_RedProbe_Bottom,GreenGaborBoth.png,RedGaborBoth.png,GreenGaborBoth.png,RedGaborDisappearBottom.png,Red.mp3,red,bottom,17,17,0,,,,0,17,17,9,558.3212074170006,,,,,,,,,,,,,,,,bottom,,,,,,,,558.3056504169945,558.8549846250098,558.8551482500043,564.1047038339893,564.111160416971,565.3549132500193,565.3563545839861,566.0717890000087,566.0732188340044,567.5056065419922,mostlygreen,FinalRedContrast,FinalGreenContrast,567.5062625000137,570.2222478339681,3,051926ep,001,2026-05-19_14h17.57.365,priming,,2026.1.3,59.94300918620283,2026-05-19 14h17.57.679303 -0700,
RR_non_riv_catch_RedCue_RedProbe_Top,Blank.png,RedGaborBoth.png,Blank.png,RedGaborDisappearTop.png,Red.mp3,red,top,18,18,0,,,,0,18,18,72,570.2379457919742,,,,,,,,,,,,,,,,top,,,,,,,,570.2223464170238,571.0882982920157,571.0884634999675,576.338025917008,576.3454607090098,577.5880274589872,577.5896570420009,578.8387703339686,578.8394832920167,580.1887289999868,allred,FinalRedContrast,FinalGreenContrast,580.1898365839734,581.4220985840075,2,051926ep,001,2026-05-19_14h17.57.365,priming,,2026.1.3,59.94300918620283,2026-05-19 14h17.57.679303 -0700,
GR_Congruent_GreenCue_GreenProbe_Bottom,GreenGaborBoth.png,RedGaborBoth.png,GreenGaborDisappearBottom.png,RedGaborBoth.png,Green.mp3,green,bottom,19,19,0,,,,0,19,19,27,581.4378785840236,,,,,,,,,,,,,,,,bottom,,,,,,,,581.4239972920041,582.0883483749931,582.0885141249746,587.3379154999857,587.3454469590215,588.5880780419684,588.5896134169889,590.2388810840202,590.2394730839878,591.7056670419988,mostlygreen,FinalRedContrast,FinalGreenContrast,591.7067658749875,592.838999583968,2,051926ep,001,2026-05-19_14h17.57.365,priming,,2026.1.3,59.94300918620283,2026-05-19 14h17.57.679303 -0700,
GR_Congruent_RedCue_RedProbe_Bottom,GreenGaborBoth.png,RedGaborBoth.png,GreenGaborBoth.png,RedGaborDisappearBottom.png,Red.mp3,red,bottom,20,20,0,,,,0,20,20,65,592.854690084001,,,,,,,,,,,,,,,,bottom,,,,,,,,592.840640874987,593.3551618339843,593.3553298750194,598.6047687089886,598.6112239169888,599.8548052919796,599.8564464999945,600.9885554169887,600.9899828750058,602.47245208401,mostlyred,FinalRedContrast,FinalGreenContrast,602.4729209169745,603.3723058339674,2,051926ep,001,2026-05-19_14h17.57.365,priming,,2026.1.3,59.94300918620283,2026-05-19 14h17.57.679303 -0700,
GR_Incongruent_GreenCue_RedProbe_Top,GreenGaborBoth.png,RedGaborBoth.png,GreenGaborBoth.png,RedGaborDisappearTop.png,Green.mp3,green,top,21,21,0,,,,0,21,21,30,603.3880709169898,,,,,,,,,,,,,,,,top,,,,,,,,603.3742204169976,603.8550884589786,603.8552546669962,609.1047742500086,609.111192625016,610.354741209012,610.3564851669944,612.8886028749985,612.8900493339752,614.555680083984,allred,FinalRedContrast,FinalGreenContrast,614.5563065839815,615.7388666669722,2,051926ep,001,2026-05-19_14h17.57.365,priming,,2026.1.3,59.94300918620283,2026-05-19 14h17.57.679303 -0700,
GR_Congruent_RedCue_RedProbe_Top,GreenGaborBoth.png,RedGaborBoth.png,GreenGaborBoth.png,RedGaborDisappearTop.png,Red.mp3,red,top,22,22,0,,,,0,22,22,8,615.7547949170112,,,,,,,,,,,,,,,,top,,,,,,,,615.7406340839807,616.2051945420098,616.2053647499997,621.4549631249974,621.461335,622.7049704170204,622.7062424169853,623.2553724999889,623.256272833969,624.3724700839957,mostlyred,FinalRedContrast,FinalGreenContrast,624.373506666976,624.9890599169885,2,051926ep,001,2026-05-19_14h17.57.365,priming,,2026.1.3,59.94300918620283,2026-05-19 14h17.57.679303 -0700,
GR_Congruent_GreenCue_GreenProbe_Top,GreenGaborBoth.png,RedGaborBoth.png,GreenGaborDisappearTop.png,RedGaborBoth.png,Green.mp3,green,top,23,23,0,,,,0,23,23,26,625.004877874977,,,,,,,,,,,,,,,,top,,,,,,,,624.9909096250194,625.5552476249868,625.5554122920148,630.8049486670061,630.8124358750065,632.0548758339719,632.0564470000099,633.7052913340158,633.7067546250182,636.4228383749723,mostlygreen,FinalRedContrast,FinalGreenContrast,636.4234337090165,637.622876208974,2,051926ep,001,2026-05-19_14h17.57.365,priming,,2026.1.3,59.94300918620283,2026-05-19 14h17.57.679303 -0700,
GG_non_riv_catch_GreenCue_GreenProbe_Bottom,GreenGaborBoth.png,Blank.png,GreenGaborDisappearBottom.png,Blank.png,Green.mp3,green,bottom,24,24,0,,,,0,24,24,79,637.6381350840093,,,,,,,,,,,,,,,,bottom,,,,,,,,637.6229763340089,638.20521783398,638.2053825419862,643.4549755419721,643.4603226250038,644.7049159589806,644.7062382500153,645.5386833749944,645.5402416249854,646.6227906249696,allgreen,FinalRedContrast,FinalGreenContrast,646.623494874977,647.755778916995,2,051926ep,001,2026-05-19_14h17.57.365,priming,,2026.1.3,59.94300918620283,2026-05-19 14h17.57.679303 -0700,
GR_Congruent_RedCue_RedProbe_Bottom,GreenGaborBoth.png,RedGaborBoth.png,GreenGaborBoth.png,RedGaborDisappearBottom.png,Red.mp3,red,bottom,25,25,0,,,,0,25,25,33,647.7715487920213,,,,,,,,,,,,,,,,bottom,,,,,,,,647.7574496250018,648.2719330419786,648.2720985420165,653.5217682920047,653.5293892089976,654.7717691669823,654.7733637500205,655.5054372089799,655.5065375000122,656.4726251249667,allred,FinalRedContrast,FinalGreenContrast,656.4736450419878,658.4392044169945,2,051926ep,001,2026-05-19_14h17.57.365,priming,,2026.1.3,59.94300918620283,2026-05-19 14h17.57.679303 -0700,
GR_Incongruent_RedCue_GreenProbe_Bottom,GreenGaborBoth.png,RedGaborBoth.png,GreenGaborDisappearBottom.png,RedGaborBoth.png,Red.mp3,red,bottom,26,26,0,,,,0,26,26,61,658.4549690840067,,,,,,,,,,,,,,,,top,,,,,,,,658.4393156250007,659.0721357089933,659.0722972090007,664.3217299589887,664.3281777920201,665.5717032090179,665.5733195419889,666.788733125024,666.7900943749701,668.2726461249986,mostlyred,FinalRedContrast,FinalGreenContrast,668.2736495420104,669.2391200420097,2,051926ep,001,2026-05-19_14h17.57.365,priming,,2026.1.3,59.94300918620283,2026-05-19 14h17.57.679303 -0700,
GR_Congruent_GreenCue_GreenProbe_Top,GreenGaborBoth.png,RedGaborBoth.png,GreenGaborDisappearTop.png,RedGaborBoth.png,Green.mp3,green,top,27,27,0,,,,0,27,27,50,669.2549775419757,,,,,,,,,,,,,,,,top,,,,,,,,669.2409884170047,669.7553151670145,669.755478209001,675.0051236670115,675.0115477090003,676.2550753339892,676.2569961249828,677.5888344590203,677.590565874998,680.8064354169765,mostlygreen,FinalRedContrast,FinalGreenContrast,680.8068400420016,682.4226941249799,2,051926ep,001,2026-05-19_14h17.57.365,priming,,2026.1.3,59.94300918620283,2026-05-19 14h17.57.679303 -0700,
GR_Incongruent_RedCue_GreenProbe_Top,GreenGaborBoth.png,RedGaborBoth.png,GreenGaborDisappearTop.png,RedGaborBoth.png,Red.mp3,red,top,28,28,0,,,,0,28,28,52,682.4384622499929,,,,,,,,,,,,,,,,top,,,,,,,,682.4243261250085,683.0888380419929,683.0890029169968,688.3385300840018,688.3450018750154,689.5885056249681,689.590460959007,690.122271124972,690.1237702500075,691.6226848340011,allgreen,FinalRedContrast,FinalGreenContrast,691.6237064169836,693.1062112500076,2,051926ep,001,2026-05-19_14h17.57.365,priming,,2026.1.3,59.94300918620283,2026-05-19 14h17.57.679303 -0700,
GR_Congruent_RedCue_RedProbe_Bottom,GreenGaborBoth.png,RedGaborBoth.png,GreenGaborBoth.png,RedGaborDisappearBottom.png,Red.mp3,red,bottom,29,29,0,,,,0,29,29,1,693.1217870839755,,,,,,,,,,,,,,,,bottom,,,,,,,,693.1063323749695,693.5555074589793,693.5556695419946,698.8051077090204,698.8127556249965,700.0552593750181,700.0565257089911,701.0556014169706,701.0563733340241,702.7227369589964,mostlyred,FinalRedContrast,FinalGreenContrast,702.7237629999872,704.2893664999865,2,051926ep,001,2026-05-19_14h17.57.365,priming,,2026.1.3,59.94300918620283,2026-05-19 14h17.57.679303 -0700,
GR_Incongruent_GreenCue_RedProbe_Bottom,GreenGaborBoth.png,RedGaborBoth.png,GreenGaborBoth.png,RedGaborDisappearBottom.png,Green.mp3,green,bottom,30,30,0,,,,0,30,30,55,704.3051459169947,,,,,,,,,,,,,,,,bottom,,,,,,,,704.2912848750129,704.8388232089928,704.8389871669933,710.0885912500089,710.0950021669851,711.3386503750226,711.340499583981,711.9224065419985,711.9238767090137,712.8394613749697,mostlyred,FinalRedContrast,FinalGreenContrast,712.8406541669974,714.6895258339937,2,051926ep,001,2026-05-19_14h17.57.365,priming,,2026.1.3,59.94300918620283,2026-05-19 14h17.57.679303 -0700,
GR_Incongruent_RedCue_GreenProbe_Top,GreenGaborBoth.png,RedGaborBoth.png,GreenGaborDisappearTop.png,RedGaborBoth.png,Red.mp3,red,top,31,31,0,,,,0,31,31,20,714.7052387089934,,,,,,,,,,,,,,,,top,,,,,,,,714.6911101670121,715.2225875000004,715.222777292016,720.4720146249747,720.4784610000206,721.7220401249942,721.723419166985,722.3224691670039,722.3234513339703,723.572912041971,mostlygreen,FinalRedContrast,FinalGreenContrast,723.5740815419704,728.1062352919835,2,051926ep,001,2026-05-19_14h17.57.365,priming,,2026.1.3,59.94300918620283,2026-05-19 14h17.57.679303 -0700,
GR_Congruent_GreenCue_GreenProbe_Top,GreenGaborBoth.png,RedGaborBoth.png,GreenGaborDisappearTop.png,RedGaborBoth.png,Green.mp3,green,top,32,32,0,,,,0,32,32,2,728.1220234999782,,,,,,,,,,,,,,,,bottom,,,,,,,,728.1081304589752,742.8059171669884,742.8060815419885,748.0554462500149,748.064373250003,749.3055120420177,749.307020334003,751.1225327500142,751.1240260420018,753.2066853750148,allgreen,FinalRedContrast,FinalGreenContrast,753.2069815840223,755.906285916979,2,051926ep,001,2026-05-19_14h17.57.365,priming,,2026.1.3,59.94300918620283,2026-05-19 14h17.57.679303 -0700,
GR_Incongruent_GreenCue_RedProbe_Top,GreenGaborBoth.png,RedGaborBoth.png,GreenGaborBoth.png,RedGaborDisappearTop.png,Green.mp3,green,top,33,33,0,,,,0,33,33,62,755.9220358749735,,,,,,,,,,,,,,,,top,,,,,,,,755.9063904589857,756.4392357089673,756.4394262919668,761.6887612090213,761.6962713340181,762.9386625839979,762.9400139999925,764.2392161670141,764.2404749169946,765.3063045839663,allgreen,FinalRedContrast,FinalGreenContrast,765.3075534999953,766.6062735840096,2,051926ep,001,2026-05-19_14h17.57.365,priming,,2026.1.3,59.94300918620283,2026-05-19 14h17.57.679303 -0700,
GR_Congruent_RedCue_RedProbe_Bottom,GreenGaborBoth.png,RedGaborBoth.png,GreenGaborBoth.png,RedGaborDisappearBottom.png,Red.mp3,red,bottom,34,34,0,,,,0,34,34,41,766.6220590000157,,,,,,,,,,,,,,,,bottom,,,,,,,,766.6080399589846,767.2390027500223,767.2391696670093,772.4888234169921,772.4964489999693,773.739034875005,773.7406197090168,774.4559971669805,774.4571083749761,775.1230512500042,allgreen,FinalRedContrast,FinalGreenContrast,775.1241618749918,779.1397170419805,2,051926ep,001,2026-05-19_14h17.57.365,priming,,2026.1.3,59.94300918620283,2026-05-19 14h17.57.679303 -0700,
RR_non_riv_catch_GreenCue_RedProbe_Bottom,Blank.png,RedGaborBoth.png,Blank.png,RedGaborDisappearBottom.png,Green.mp3,green,bottom,35,35,0,,,,0,35,35,75,779.1554549590219,,,,,,,,,,,,,,,,bottom,,,,,,,,779.1415998340235,779.6061536669731,779.6063340419787,784.8556217500009,784.8618703749962,786.1056254169671,786.1070466670208,788.5394254589919,788.5405072090216,790.0729618339683,allred,FinalRedContrast,FinalGreenContrast,790.0741670419811,791.2229867089773,2,051926ep,001,2026-05-19_14h17.57.365,priming,,2026.1.3,59.94300918620283,2026-05-19 14h17.57.679303 -0700,
GG_non_riv_catch_RedCue_GreenProbe_Top,GreenGaborBoth.png,Blank.png,GreenGaborDisappearTop.png,Blank.png,Red.mp3,red,top,36,36,0,,,,0,36,36,76,791.2389199999743,,,,,,,,,,,,,,,,bottom,,,,,,,,791.2246439590235,791.739228749997,791.7393939999747,796.9888545839931,796.9948190000141,798.2388464169926,798.2407924169675,799.755984959018,799.7576197920134,800.6564580419799,allgreen,FinalRedContrast,FinalGreenContrast,800.6577295419993,802.3065522920224,2,051926ep,001,2026-05-19_14h17.57.365,priming,,2026.1.3,59.94300918620283,2026-05-19 14h17.57.679303 -0700,
GR_Incongruent_RedCue_GreenProbe_Top,GreenGaborBoth.png,RedGaborBoth.png,GreenGaborDisappearTop.png,RedGaborBoth.png,Red.mp3,red,top,37,37,0,,,,0,37,37,44,802.3222653340199,,,,,,,,,,,,,,,,bottom,,,,,,,,802.3066701670177,804.3225807499839,804.3227487499826,809.5723397919792,809.5788775419933,810.8222854589694,810.8240095839719,813.1730068749748,813.174522708985,815.8068850840209,mostlygreen,FinalRedContrast,FinalGreenContrast,815.8078605839983,816.9901757499902,2,051926ep,001,2026-05-19_14h17.57.365,priming,,2026.1.3,59.94300918620283,2026-05-19 14h17.57.679303 -0700,
RR_non_riv_catch_RedCue_RedProbe_Bottom,Blank.png,RedGaborBoth.png,Blank.png,RedGaborDisappearBottom.png,Red.mp3,red,bottom,38,38,0,,,,0,38,38,73,817.0056999590015,,,,,,,,,,,,,,,,bottom,,,,,,,,816.9902963750064,817.8063285839744,817.8065059590153,823.055699999968,823.062545874971,824.3057293340098,824.3072180419695,824.8727987500024,824.8743677919847,826.5397967919707,allred,FinalRedContrast,FinalGreenContrast,826.540639541985,827.6899128339719,2,051926ep,001,2026-05-19_14h17.57.365,priming,,2026.1.3,59.94300918620283,2026-05-19 14h17.57.679303 -0700,
GR_Incongruent_GreenCue_RedProbe_Bottom,GreenGaborBoth.png,RedGaborBoth.png,GreenGaborBoth.png,RedGaborDisappearBottom.png,Green.mp3,green,bottom,39,39,0,,,,0,39,39,47,827.7056105419761,,,,,,,,,,,,,,,,top,,,,,,,,827.691878166981,828.3226342090056,828.3227965420228,833.5725019999663,833.5790425419691,834.8225485419971,834.8238193750149,836.2563184589962,836.2577019589953,837.6066267089918,mostlygreen,FinalRedContrast,FinalGreenContrast,837.6076126670232,838.9900070420117,2,051926ep,001,2026-05-19_14h17.57.365,priming,,2026.1.3,59.94300918620283,2026-05-19 14h17.57.679303 -0700,
GR_Congruent_RedCue_RedProbe_Top,GreenGaborBoth.png,RedGaborBoth.png,GreenGaborBoth.png,RedGaborDisappearTop.png,Red.mp3,red,top,40,40,0,,,,0,40,40,56,839.0057209170191,,,,,,,,,,,,,,,,bottom,,,,,,,,838.9917918749852,839.8560971670086,839.8562638749718,845.1057843340095,845.1132443749812,846.3558299589786,846.3573257499957,847.2896184999845,847.291100041999,848.4733654590091,mostlygreen,FinalRedContrast,FinalGreenContrast,848.4738730840036,849.7733197920024,2,051926ep,001,2026-05-19_14h17.57.365,priming,,2026.1.3,59.94300918620283,2026-05-19 14h17.57.679303 -0700,
GR_Incongruent_RedCue_GreenProbe_Bottom,GreenGaborBoth.png,RedGaborBoth.png,GreenGaborDisappearBottom.png,RedGaborBoth.png,Red.mp3,red,bottom,41,41,0,,,,0,41,41,13,849.7890540839871,,,,,,,,,,,,,,,,bottom,,,,,,,,849.7734192089993,850.5228548339801,850.5230168339913,855.7724483750062,855.7801290000207,857.0225403750082,857.0237914170139,857.7228019169997,857.7244196250103,858.8069935420062,allgreen,FinalRedContrast,FinalGreenContrast,858.8072920839768,860.2567182090133,2,051926ep,001,2026-05-19_14h17.57.365,priming,,2026.1.3,59.94300918620283,2026-05-19 14h17.57.679303 -0700,
GR_Congruent_GreenCue_GreenProbe_Bottom,GreenGaborBoth.png,RedGaborBoth.png,GreenGaborDisappearBottom.png,RedGaborBoth.png,Green.mp3,green,bottom,42,42,0,,,,0,42,42,67,860.2726497090189,,,,,,,,,,,,,,,,bottom,,,,,,,,860.2586441669846,860.7727610840229,860.7729270419804,866.0226461249986,866.0291036249837,867.2726079169661,867.2742480839952,868.0397026669816,868.0411274589715,869.1067582499818,mostlyred,FinalRedContrast,FinalGreenContrast,869.1077363339718,872.3905486669973,2,051926ep,001,2026-05-19_14h17.57.365,priming,,2026.1.3,59.94300918620283,2026-05-19 14h17.57.679303 -0700,
GG_non_riv_catch_GreenCue_GreenProbe_Top,GreenGaborBoth.png,Blank.png,GreenGaborDisappearTop.png,Blank.png,Green.mp3,green,top,43,43,0,,,,0,43,43,78,872.4058518749662,,,,,,,,,,,,,,,,top,,,,,,,,872.3906498749857,873.0896003749804,873.0897663339856,878.3392956670141,878.3460112499888,879.5892828750075,879.5908891250147,880.2563455839991,880.2572975839721,881.3733935420169,allgreen,FinalRedContrast,FinalGreenContrast,881.3744814170059,883.0235967920162,2,051926ep,001,2026-05-19_14h17.57.365,priming,,2026.1.3,59.94300918620283,2026-05-19 14h17.57.679303 -0700,
GR_Incongruent_GreenCue_RedProbe_Top,GreenGaborBoth.png,RedGaborBoth.png,GreenGaborBoth.png,RedGaborDisappearTop.png,Green.mp3,green,top,44,44,0,,,,0,44,44,54,883.0392304590205,,,,,,,,,,,,,,,,top,,,,,,,,883.0237052090233,885.8396380000049,885.8398004589835,891.0893026670092,891.0968328340095,892.3391324999975,892.3408315000124,893.2898942920147,893.2911294589867,894.3402885419782,mostlygreen,FinalRedContrast,FinalGreenContrast,894.340952708968,895.9068045839667,2,051926ep,001,2026-05-19_14h17.57.365,priming,,2026.1.3,59.94300918620283,2026-05-19 14h17.57.679303 -0700,
GR_Incongruent_RedCue_GreenProbe_Bottom,GreenGaborBoth.png,RedGaborBoth.png,GreenGaborDisappearBottom.png,RedGaborBoth.png,Red.mp3,red,bottom,45,45,0,,,,0,45,45,21,895.9227237090236,,,,,,,,,,,,,,,,bottom,,,,,,,,895.9085124169942,896.5231210839702,896.5232852500048,901.7728587089805,901.7793026670115,903.0227920839679,903.024151999969,903.806472708995,903.8079994589789,904.8569897090201,mostlygreen,FinalRedContrast,FinalGreenContrast,904.8574002920068,906.340231249982,2,051926ep,001,2026-05-19_14h17.57.365,priming,,2026.1.3,59.94300918620283,2026-05-19 14h17.57.679303 -0700,
GR_Congruent_GreenCue_GreenProbe_Top,GreenGaborBoth.png,RedGaborBoth.png,GreenGaborDisappearTop.png,RedGaborBoth.png,Green.mp3,green,top,46,46,0,,,,0,46,46,42,906.3560263749678,,,,,,,,,,,,,,,,top,,,,,,,,906.3421273339773,906.8064753339859,906.8066654999857,912.0561253749765,912.062642208999,913.3060810840107,913.3076048339717,914.1565064589959,914.1583217090229,915.6569958750042,allgreen,FinalRedContrast,FinalGreenContrast,915.6577833339688,917.8403432089835,2,051926ep,001,2026-05-19_14h17.57.365,priming,,2026.1.3,59.94300918620283,2026-05-19 14h17.57.679303 -0700,
GR_Incongruent_GreenCue_RedProbe_Bottom,GreenGaborBoth.png,RedGaborBoth.png,GreenGaborBoth.png,RedGaborDisappearBottom.png,Green.mp3,green,bottom,47,47,0,,,,0,47,47,71,917.8560928750085,,,,,,,,,,,,,,,,bottom,,,,,,,,917.8404467499931,918.3731214589789,918.3732861250173,923.6227119590039,923.6303176250076,924.8728824999998,924.874590041989,925.4899686669814,925.4914419170236,926.9237538339803,allred,FinalRedContrast,FinalGreenContrast,926.9248398750206,928.3237296249717,2,051926ep,001,2026-05-19_14h17.57.365,priming,,2026.1.3,59.94300918620283,2026-05-19 14h17.57.679303 -0700,
GR_Congruent_RedCue_RedProbe_Top,GreenGaborBoth.png,RedGaborBoth.png,GreenGaborBoth.png,RedGaborDisappearTop.png,Red.mp3,red,top,48,48,0,,,,0,48,48,16,928.3394860840053,,,,,,,,,,,,,,,,top,,,,,,,,928.3253718750202,928.9898495000089,928.9900126249995,934.2394562090049,934.2469957919675,935.4895737089682,935.4913825839758,936.2566126249731,936.2581607499742,938.5907912090188,mostlyred,FinalRedContrast,FinalGreenContrast,938.5911642090068,940.0237341669854,1,051926ep,001,2026-05-19_14h17.57.365,priming,,2026.1.3,59.94300918620283,2026-05-19 14h17.57.679303 -0700,
GR_Incongruent_RedCue_GreenProbe_Top,GreenGaborBoth.png,RedGaborBoth.png,GreenGaborDisappearTop.png,RedGaborBoth.png,Red.mp3,red,top,49,49,0,,,,0,49,49,68,940.0395905419718,,,,,,,,,,,,,,,,top,,,,,,,,940.023868334014,940.7731516669737,940.7733152090223,946.0228540420067,946.0305412919843,947.2729758750065,947.2748235840118,949.0233204999822,949.024730834004,950.5571813749848,mostlygreen,FinalRedContrast,FinalGreenContrast,950.5582153750001,951.4238004590152,2,051926ep,001,2026-05-19_14h17.57.365,priming,,2026.1.3,59.94300918620283,2026-05-19 14h17.57.679303 -0700,
GR_Incongruent_RedCue_GreenProbe_Bottom,GreenGaborBoth.png,RedGaborBoth.png,GreenGaborDisappearBottom.png,RedGaborBoth.png,Red.mp3,red,bottom,50,50,0,,,,0,50,50,53,951.4395454169717,,,,,,,,,,,,,,,,bottom,,,,,,,,951.4239086669986,951.9565903340117,951.956754792016,957.2063498750213,957.2137931250036,958.45639175002,958.4578348749783,959.6901683339966,959.6916057919734,962.0405266250018,mostlygreen,FinalRedContrast,FinalGreenContrast,962.041168374999,964.5071857919684,2,051926ep,001,2026-05-19_14h17.57.365,priming,,2026.1.3,59.94300918620283,2026-05-19 14h17.57.679303 -0700,
GR_Incongruent_GreenCue_RedProbe_Bottom,GreenGaborBoth.png,RedGaborBoth.png,GreenGaborBoth.png,RedGaborDisappearBottom.png,Green.mp3,green,bottom,51,51,0,,,,0,51,51,63,964.5229520419962,,,,,,,,,,,,,,,,bottom,,,,,,,,964.5090235419921,968.9066562919761,968.906821416982,974.1563879169989,974.1649881249759,975.4064147919999,975.4079957919894,976.740086500009,976.7419656249695,978.4072080840124,mostlygreen,FinalRedContrast,FinalGreenContrast,978.4076376250014,980.2571324589662,2,051926ep,001,2026-05-19_14h17.57.365,priming,,2026.1.3,59.94300918620283,2026-05-19 14h17.57.679303 -0700,
GG_non_riv_catch_RedCue_GreenProbe_Bottom,GreenGaborBoth.png,Blank.png,GreenGaborDisappearBottom.png,Blank.png,Red.mp3,red,bottom,52,52,0,,,,0,52,52,77,980.2728593749925,,,,,,,,,,,,,,,,top,,,,,,,,980.2588697919855,981.0067954999977,981.0069628339843,986.2564776670188,986.2632999169873,987.5064680419746,987.5080424589687,991.7402646249975,991.7416879999801,993.0573552499991,mostlygreen,FinalRedContrast,FinalGreenContrast,993.0584707090165,994.2740541669773,2,051926ep,001,2026-05-19_14h17.57.365,priming,,2026.1.3,59.94300918620283,2026-05-19 14h17.57.679303 -0700,
GR_Congruent_GreenCue_GreenProbe_Bottom,GreenGaborBoth.png,RedGaborBoth.png,GreenGaborDisappearBottom.png,RedGaborBoth.png,Green.mp3,green,bottom,53,53,0,,,,0,53,53,19,994.289742959023,,,,,,,,,,,,,,,,top,,,,,,,,994.2758786249906,994.9737979170168,994.9739691250143,1000.2231590420124,1000.2307311670156,1001.4731029589893,1001.4747325839708,1002.22357654199,1002.2250295419944,1004.2240103749791,allred,FinalRedContrast,FinalGreenContrast,1004.2242897090036,1005.6073158750078,2,051926ep,001,2026-05-19_14h17.57.365,priming,,2026.1.3,59.94300918620283,2026-05-19 14h17.57.679303 -0700,
GR_Congruent_RedCue_RedProbe_Top,GreenGaborBoth.png,RedGaborBoth.png,GreenGaborBoth.png,RedGaborDisappearTop.png,Red.mp3,red,top,54,54,0,,,,0,54,54,64,1005.6230649590143,,,,,,,,,,,,,,,,top,,,,,,,,1005.6089042499661,1006.1737273340113,1006.1738988750149,1011.4230898339883,1011.4305595419719,1012.6730969590135,1012.6750980420038,1013.6569352499791,1013.6584866669727,1017.5909532500082,mostlyred,FinalRedContrast,FinalGreenContrast,1017.5912717920146,1018.7744633749826,2,051926ep,001,2026-05-19_14h17.57.365,priming,,2026.1.3,59.94300918620283,2026-05-19 14h17.57.679303 -0700,
GR_Incongruent_RedCue_GreenProbe_Bottom,GreenGaborBoth.png,RedGaborBoth.png,GreenGaborDisappearBottom.png,RedGaborBoth.png,Red.mp3,red,bottom,55,55,0,,,,0,55,55,69,1018.7898933339748,,,,,,,,,,,,,,,,bottom,,,,,,,,1018.7745607090183,1019.3069792920141,1019.3071409169934,1024.5566148749785,1024.563042416994,1025.8066385419806,1025.8084096669918,1027.757039042015,1027.758696542005,1029.9240865000174,mostlygreen,FinalRedContrast,FinalGreenContrast,1029.9252170419786,1031.3910298749688,2,051926ep,001,2026-05-19_14h17.57.365,priming,,2026.1.3,59.94300918620283,2026-05-19 14h17.57.679303 -0700,
GR_Incongruent_GreenCue_RedProbe_Top,GreenGaborBoth.png,RedGaborBoth.png,GreenGaborBoth.png,RedGaborDisappearTop.png,Green.mp3,green,top,56,56,0,,,,0,56,56,6,1031.4065451250062,,,,,,,,,,,,,,,,top,,,,,,,,1031.3928316669771,1031.8401907500229,1031.8403540420113,1037.0901839999715,1037.0967027089791,1038.3398884590133,1038.3421037499793,1039.023652667005,1039.0255142920068,1040.3075821250095,mostlygreen,FinalRedContrast,FinalGreenContrast,1040.308678041969,1040.9075796669931,2,051926ep,001,2026-05-19_14h17.57.365,priming,,2026.1.3,59.94300918620283,2026-05-19 14h17.57.679303 -0700,
GR_Congruent_GreenCue_GreenProbe_Top,GreenGaborBoth.png,RedGaborBoth.png,GreenGaborDisappearTop.png,RedGaborBoth.png,Green.mp3,green,top,57,57,0,,,,0,57,57,10,1040.923093334015,,,,,,,,,,,,,,,,top,,,,,,,,1040.9077033749782,1041.3739832499996,1041.3741612089798,1046.6232668749872,1046.6309600420063,1047.8734069169732,1047.8747569170082,1048.9071176669677,1048.9088204170112,1050.6575955419685,mostlygreen,FinalRedContrast,FinalGreenContrast,1050.6588337499998,1051.9242731250124,2,051926ep,001,2026-05-19_14h17.57.365,priming,,2026.1.3,59.94300918620283,2026-05-19 14h17.57.679303 -0700,
GR_Congruent_RedCue_RedProbe_Top,GreenGaborBoth.png,RedGaborBoth.png,GreenGaborBoth.png,RedGaborDisappearTop.png,Red.mp3,red,top,58,58,0,,,,0,58,58,0,1051.9399770419695,,,,,,,,,,,,,,,,top,,,,,,,,1051.9258591670077,1052.407060833997,1052.4072351250215,1057.6567351249978,1057.6631542500108,1058.9067606250173,1058.9085584590212,1059.9237902499735,1059.9249072920065,1061.0241257090238,mostlygreen,FinalRedContrast,FinalGreenContrast,1061.0252897919854,1062.1909547499963,2,051926ep,001,2026-05-19_14h17.57.365,priming,,2026.1.3,59.94300918620283,2026-05-19 14h17.57.679303 -0700,
RR_non_riv_catch_GreenCue_RedProbe_Top,Blank.png,RedGaborBoth.png,Blank.png,RedGaborDisappearTop.png,Green.mp3,green,top,59,59,0,,,,0,59,59,74,1062.2066641249694,,,,,,,,,,,,,,,,top,,,,,,,,1062.1927557089948,1062.8071583749843,1062.807325458969,1068.0567406669725,1068.0623023340013,1069.3068957090145,1069.308702624985,1070.2237591670128,1070.2255729169701,1071.441005708999,evensplit,FinalRedContrast,FinalGreenContrast,1071.4414358750219,1072.2582053749938,2,051926ep,001,2026-05-19_14h17.57.365,priming,,2026.1.3,59.94300918620283,2026-05-19 14h17.57.679303 -0700,
GR_Incongruent_GreenCue_RedProbe_Bottom,GreenGaborBoth.png,RedGaborBoth.png,GreenGaborBoth.png,RedGaborDisappearBottom.png,Green.mp3,green,bottom,60,60,0,,,,0,60,60,7,1072.2736277090153,,,,,,,,,,,,,,,,top,,,,,,,,1072.258323999995,1072.723731666978,1072.7238982089912,1077.973384958983,1077.9818174170214,1079.22357666702,1079.225372417015,1080.1239674590179,1080.1254910419811,1081.124408416974,evensplit,FinalRedContrast,FinalGreenContrast,1081.1255382919917,1082.4409940000041,2,051926ep,001,2026-05-19_14h17.57.365,priming,,2026.1.3,59.94300918620283,2026-05-19 14h17.57.679303 -0700,
GR_Congruent_GreenCue_GreenProbe_Bottom,GreenGaborBoth.png,RedGaborBoth.png,GreenGaborDisappearBottom.png,RedGaborBoth.png,Green.mp3,green,bottom,61,61,0,,,,0,61,61,3,1082.456791625009,,,,,,,,,,,,,,,,bottom,,,,,,,,1082.4410922499956,1083.007199625019,1083.0073619169998,1088.256882000016,1088.2644141669734,1089.5069047919824,1089.5084059169749,1090.223988667014,1090.2255799589911,1092.0577615840011,mostlygreen,FinalRedContrast,FinalGreenContrast,1092.058500959014,1093.6910487919813,2,051926ep,001,2026-05-19_14h17.57.365,priming,,2026.1.3,59.94300918620283,2026-05-19 14h17.57.679303 -0700,
GR_Incongruent_GreenCue_RedProbe_Bottom,GreenGaborBoth.png,RedGaborBoth.png,GreenGaborBoth.png,RedGaborDisappearBottom.png,Green.mp3,green,bottom,62,62,0,,,,0,62,62,15,1093.7067437500227,,,,,,,,,,,,,,,,top,,,,,,,,1093.6911807919969,1095.0738140419708,1095.0739777089912,1100.3234418340144,1100.329939541989,1101.57352008397,1101.5747737920028,1102.440652167017,1102.442166334018,1104.007768334006,mostlyred,FinalRedContrast,FinalGreenContrast,1104.008047542011,1105.6410606249701,2,051926ep,001,2026-05-19_14h17.57.365,priming,,2026.1.3,59.94300918620283,2026-05-19 14h17.57.679303 -0700,
GR_Congruent_RedCue_RedProbe_Bottom,GreenGaborBoth.png,RedGaborBoth.png,GreenGaborBoth.png,RedGaborDisappearBottom.png,Red.mp3,red,bottom,63,63,0,,,,0,63,63,49,1105.656845624966,,,,,,,,,,,,,,,,bottom,,,,,,,,1105.6427881249692,1106.2904434590018,1106.290605709015,1111.5403204589966,1111.546826875012,1112.790336999984,1112.7918394589797,1113.5740764170187,1113.5755279589794,1114.5911281249719,mostlyred,FinalRedContrast,FinalGreenContrast,1114.5921177089913,1115.8911446249695,2,051926ep,001,2026-05-19_14h17.57.365,priming,,2026.1.3,59.94300918620283,2026-05-19 14h17.57.679303 -0700,
GR_Incongruent_GreenCue_RedProbe_Top,GreenGaborBoth.png,RedGaborBoth.png,GreenGaborBoth.png,RedGaborDisappearTop.png,Green.mp3,green,top,64,64,0,,,,0,64,64,22,1115.9069080000045,,,,,,,,,,,,,,,,bottom,,,,,,,,1115.89304270898,1116.507269292022,1116.507434625004,1121.7570113749825,1121.7645721670124,1123.0069149999763,1123.0087719169678,1123.9406996250036,1123.9421509999665,1125.091125749983,mostlygreen,FinalRedContrast,FinalGreenContrast,1125.0921476670192,1126.4745670420234,2,051926ep,001,2026-05-19_14h17.57.365,priming,,2026.1.3,59.94300918620283,2026-05-19 14h17.57.679303 -0700,
GR_Congruent_RedCue_RedProbe_Top,GreenGaborBoth.png,RedGaborBoth.png,GreenGaborBoth.png,RedGaborDisappearTop.png,Red.mp3,red,top,65,65,0,,,,0,65,65,40,1126.4902412500232,,,,,,,,,,,,,,,,top,,,,,,,,1126.4761754170177,1127.1743541670148,1127.1745446670102,1132.4235955839977,1132.4301142920158,1133.6736991250073,1133.6753116250038,1134.857351084007,1134.859234249976,1139.0910872090026,mostlygreen,FinalRedContrast,FinalGreenContrast,1139.0923485420062,1140.1078674590099,2,051926ep,001,2026-05-19_14h17.57.365,priming,,2026.1.3,59.94300918620283,2026-05-19 14h17.57.679303 -0700,
GR_Congruent_RedCue_RedProbe_Top,GreenGaborBoth.png,RedGaborBoth.png,GreenGaborBoth.png,RedGaborDisappearTop.png,Red.mp3,red,top,66,66,0,,,,0,66,66,32,1140.1235537920147,,,,,,,,,,,,,,,,top,,,,,,,,1140.1079719999689,1140.674092124973,1140.6742532500066,1145.9237883340102,1145.9303272920079,1147.173793874972,1147.1756188339787,1147.7909541670233,1147.7925202919869,1149.3583575839875,mostlygreen,FinalRedContrast,FinalGreenContrast,1149.3591313749785,1151.0080246250145,2,051926ep,001,2026-05-19_14h17.57.365,priming,,2026.1.3,59.94300918620283,2026-05-19 14h17.57.679303 -0700,
GR_Congruent_GreenCue_GreenProbe_Bottom,GreenGaborBoth.png,RedGaborBoth.png,GreenGaborDisappearBottom.png,RedGaborBoth.png,Green.mp3,green,bottom,67,67,0,,,,0,67,67,51,1151.0236875839764,,,,,,,,,,,,,,,,bottom,,,,,,,,1151.009946917009,1151.5743044170085,1151.5744744999683,1156.8237420420046,1156.831155834021,1158.073847584019,1158.075073999993,1159.0742041670019,1159.075771624979,1160.357998209016,mostlygreen,FinalRedContrast,FinalGreenContrast,1160.3590255000163,1162.8579527920228,2,051926ep,001,2026-05-19_14h17.57.365,priming,,2026.1.3,59.94300918620283,2026-05-19 14h17.57.679303 -0700,
GR_Incongruent_GreenCue_RedProbe_Top,GreenGaborBoth.png,RedGaborBoth.png,GreenGaborBoth.png,RedGaborDisappearTop.png,Green.mp3,green,top,68,68,0,,,,0,68,68,38,1162.8737457499956,,,,,,,,,,,,,,,,bottom,,,,,,,,1162.85805083398,1163.5577757090214,1163.5579622089863,1168.807282208989,1168.8139280420146,1170.0571838750038,1170.0584724589717,1170.758006041986,1170.7583557500038,1171.6078940840089,evensplit,FinalRedContrast,FinalGreenContrast,1171.6094526670058,1172.9414461249835,2,051926ep,001,2026-05-19_14h17.57.365,priming,,2026.1.3,59.94300918620283,2026-05-19 14h17.57.679303 -0700,
GR_Incongruent_RedCue_GreenProbe_Top,GreenGaborBoth.png,RedGaborBoth.png,GreenGaborDisappearTop.png,RedGaborBoth.png,Red.mp3,red,top,69,69,0,,,,0,69,69,12,1172.957278417016,,,,,,,,,,,,,,,,top,,,,,,,,1172.9431002499769,1173.5575547919725,1173.5577172500198,1178.807093083975,1178.8147409589728,1180.0573247090215,1180.0585946249776,1180.6409429169726,1180.6424890420167,1181.208130959014,evensplit,FinalRedContrast,FinalGreenContrast,1181.2084223749698,1182.4914250000147,2,051926ep,001,2026-05-19_14h17.57.365,priming,,2026.1.3,59.94300918620283,2026-05-19 14h17.57.679303 -0700,
GR_Congruent_GreenCue_GreenProbe_Top,GreenGaborBoth.png,RedGaborBoth.png,GreenGaborDisappearTop.png,RedGaborBoth.png,Green.mp3,green,top,70,70,0,,,,0,70,70,58,1182.5071580840158,,,,,,,,,,,,,,,,top,,,,,,,,1182.4933148749988,1183.1742677090224,1183.174433209002,1188.4239641670138,1188.430450499989,1189.6739324589726,1189.6759857499856,1190.6744762089802,1190.6759614169714,1191.991409374983,mostlygreen,FinalRedContrast,FinalGreenContrast,1191.9925169589696,1193.1748130419874,2,051926ep,001,2026-05-19_14h17.57.365,priming,,2026.1.3,59.94300918620283,2026-05-19 14h17.57.679303 -0700,
GR_Congruent_GreenCue_GreenProbe_Bottom,GreenGaborBoth.png,RedGaborBoth.png,GreenGaborDisappearBottom.png,RedGaborBoth.png,Green.mp3,green,bottom,71,71,0,,,,0,71,71,35,1193.1905883749714,,,,,,,,,,,,,,,,top,,,,,,,,1193.174910874979,1193.574313124991,1193.574480750016,1198.824003042013,1198.830433583993,1200.073927749996,1200.0756674589938,1200.6743690000148,1200.6758804590208,1201.6581829999923,evensplit,FinalRedContrast,FinalGreenContrast,1201.6592304590158,1202.6246948339976,2,051926ep,001,2026-05-19_14h17.57.365,priming,,2026.1.3,59.94300918620283,2026-05-19 14h17.57.679303 -0700,
GR_Incongruent_RedCue_GreenProbe_Top,GreenGaborBoth.png,RedGaborBoth.png,GreenGaborDisappearTop.png,RedGaborBoth.png,Red.mp3,red,top,72,72,0,,,,0,72,72,28,1202.6404927499825,,,,,,,,,,,,,,,,top,,,,,,,,1202.626322541968,1202.9575253750081,1202.9576933339704,1208.2073687919765,1208.2137954590144,1209.4573284590151,1209.4585869999719,1210.8743534589885,1210.8759587919922,1212.0415917920182,mostlygreen,FinalRedContrast,FinalGreenContrast,1212.042008791992,1212.958239833999,2,051926ep,001,2026-05-19_14h17.57.365,priming,,2026.1.3,59.94300918620283,2026-05-19 14h17.57.679303 -0700,
GR_Congruent_RedCue_RedProbe_Bottom,GreenGaborBoth.png,RedGaborBoth.png,GreenGaborBoth.png,RedGaborDisappearBottom.png,Red.mp3,red,bottom,73,73,0,,,,0,73,73,25,1212.9739808340091,,,,,,,,,,,,,,,,top,,,,,,,,1212.9583494999679,1213.45757370902,1213.457738584024,1218.7073932919884,1218.7139016669826,1219.957386916969,1219.9588547919993,1220.0911214589723,1220.0924832919845,1222.1416482090135,mostlyred,FinalRedContrast,FinalGreenContrast,1222.1426674589748,1223.741576874978,2,051926ep,001,2026-05-19_14h17.57.365,priming,,2026.1.3,59.94300918620283,2026-05-19 14h17.57.679303 -0700,
GR_Incongruent_GreenCue_RedProbe_Bottom,GreenGaborBoth.png,RedGaborBoth.png,GreenGaborBoth.png,RedGaborDisappearBottom.png,Green.mp3,green,bottom,74,74,0,,,,0,74,74,23,1223.7573768749717,,,,,,,,,,,,,,,,bottom,,,,,,,,1223.7434748749947,1224.2077763340203,1224.2079438340152,1229.4574757500086,1229.4639123749803,1230.7073837089702,1230.709058458975,1231.8579382089665,1231.8594844170148,1232.4748835419887,mostlyred,FinalRedContrast,FinalGreenContrast,1232.476077792002,1233.1248842920177,3,051926ep,001,2026-05-19_14h17.57.365,priming,,2026.1.3,59.94300918620283,2026-05-19 14h17.57.679303 -0700,
GR_Congruent_RedCue_RedProbe_Top,GreenGaborBoth.png,RedGaborBoth.png,GreenGaborBoth.png,RedGaborDisappearTop.png,Red.mp3,red,top,75,75,0,,,,0,75,75,24,1233.1406703749672,,,,,,,,,,,,,,,,top,,,,,,,,1233.126506874978,1233.9910180839943,1233.9911832499783,1239.240893499984,1239.2485132919974,1240.4908467499772,1240.4922373340232,1241.8578952089883,1241.8594407499768,1243.991668291972,mostlygreen,FinalRedContrast,FinalGreenContrast,1243.9928550000186,1245.8250387089793,2,051926ep,001,2026-05-19_14h17.57.365,priming,,2026.1.3,59.94300918620283,2026-05-19 14h17.57.679303 -0700,
GR_Congruent_GreenCue_GreenProbe_Top,GreenGaborBoth.png,RedGaborBoth.png,GreenGaborDisappearTop.png,RedGaborBoth.png,Green.mp3,green,top,76,76,0,,,,0,76,76,66,1245.8408086249838,,,,,,,,,,,,,,,,bottom,,,,,,,,1245.826903167006,1246.607782792009,1246.6079442499904,1251.8575164590147,1251.8650893750018,1253.1075681669754,1253.108849250013,1255.1745726250228,1255.1754119169782,1256.2417787089944,evensplit,FinalRedContrast,FinalGreenContrast,1256.2423851669882,1257.5250841249945,2,051926ep,001,2026-05-19_14h17.57.365,priming,,2026.1.3,59.94300918620283,2026-05-19 14h17.57.679303 -0700,
GR_Incongruent_GreenCue_RedProbe_Top,GreenGaborBoth.png,RedGaborBoth.png,GreenGaborBoth.png,RedGaborDisappearTop.png,Green.mp3,green,top,77,77,0,,,,0,77,77,46,1257.5407424169825,,,,,,,,,,,,,,,,top,,,,,,,,1257.5251808339963,1258.0744730419829,1258.074642208987,1263.3241551250103,1263.3307195000234,1264.5741394590004,1264.575704167015,1266.82475637499,1266.8258725840133,1268.1084739589714,mostlygreen,FinalRedContrast,FinalGreenContrast,1268.109384041978,1270.04171804199,2,051926ep,001,2026-05-19_14h17.57.365,priming,,2026.1.3,59.94300918620283,2026-05-19 14h17.57.679303 -0700,
GR_Incongruent_GreenCue_RedProbe_Bottom,GreenGaborBoth.png,RedGaborBoth.png,GreenGaborBoth.png,RedGaborDisappearBottom.png,Green.mp3,green,bottom,78,78,0,,,,0,78,78,39,1270.057580499968,,,,,,,,,,,,,,,,bottom,,,,,,,,1270.041814917,1270.5079358340008,1270.5080979589839,1275.7576443749713,1275.7641006669728,1277.0076658339822,1277.0094012090121,1277.4914327919832,1277.4924647919834,1277.8251520839985,evensplit,FinalRedContrast,FinalGreenContrast,1277.8263524170034,1278.2417531249812,1,051926ep,001,2026-05-19_14h17.57.365,priming,,2026.1.3,59.94300918620283,2026-05-19 14h17.57.679303 -0700,
GR_Incongruent_RedCue_GreenProbe_Top,GreenGaborBoth.png,RedGaborBoth.png,GreenGaborDisappearTop.png,RedGaborBoth.png,Red.mp3,red,top,79,79,0,,,,0,79,79,60,1278.2575633749948,,,,,,,,,,,,,,,,top,,,,,,,,1278.2434103749692,1279.3246746669756,1279.3248447499936,1284.5743457089993,1284.5807349589886,1285.824365708977,1285.8256479999982,1286.7913698750199,1286.792960833991,1288.142253166996,allred,FinalRedContrast,FinalGreenContrast,1288.1425506669912,1289.3752216669964,2,051926ep,001,2026-05-19_14h17.57.365,priming,,2026.1.3,59.94300918620283,2026-05-19 14h17.57.679303 -0700,
GG_non_riv_catch_GreenCue_GreenProbe_Bottom,GreenGaborBoth.png,Blank.png,GreenGaborDisappearBottom.png,Blank.png,Green.mp3,green,bottom,80,0,1,,,,1,0,80,79,1289.390975666989,,,,,,,,,,,,,,,,bottom,,,,,,,,1289.3770068750018,1289.9746161249932,1289.9747817919706,1295.224294167012,1295.23093345901,1296.4741989999893,1296.4758756670053,1297.091512708983,1297.09314833401,1299.2752183339908,allgreen,FinalRedContrast,FinalGreenContrast,1299.2763595840079,1300.4586098750005,4,051926ep,001,2026-05-19_14h17.57.365,priming,,2026.1.3,59.94300918620283,2026-05-19 14h17.57.679303 -0700,
GR_Congruent_RedCue_RedProbe_Bottom,GreenGaborBoth.png,RedGaborBoth.png,GreenGaborBoth.png,RedGaborDisappearBottom.png,Red.mp3,red,bottom,81,1,1,,,,1,1,81,65,1300.474424917018,,,,,,,,,,,,,,,,bottom,,,,,,,,1300.460178416979,1301.3419893750106,1301.3421711249975,1306.5910860840231,1306.5975864999928,1307.8410877499846,1307.8427255839924,1308.4915259999689,1308.4931065000128,1309.5754334169906,evensplit,FinalRedContrast,FinalGreenContrast,1309.5757089590188,1310.9252633749857,2,051926ep,001,2026-05-19_14h17.57.365,priming,,2026.1.3,59.94300918620283,2026-05-19 14h17.57.679303 -0700,
GR_Incongruent_GreenCue_RedProbe_Bottom,GreenGaborBoth.png,RedGaborBoth.png,GreenGaborBoth.png,RedGaborDisappearBottom.png,Green.mp3,green,bottom,82,2,1,,,,1,2,82,63,1310.9410850839922,,,,,,,,,,,,,,,,top,,,,,,,,1310.9270963749732,1311.30808883399,1311.3082545420039,1316.5577989590238,1316.564368041989,1317.807789249986,1317.8093672500108,1318.5081557920203,1318.50970754202,1319.9423162919702,evensplit,FinalRedContrast,FinalGreenContrast,1319.9427667090204,1320.9254160000128,2,051926ep,001,2026-05-19_14h17.57.365,priming,,2026.1.3,59.94300918620283,2026-05-19 14h17.57.679303 -0700,
GR_Congruent_RedCue_RedProbe_Bottom,GreenGaborBoth.png,RedGaborBoth.png,GreenGaborBoth.png,RedGaborDisappearBottom.png,Red.mp3,red,bottom,83,3,1,,,,1,3,83,1,1320.9409418340074,,,,,,,,,,,,,,,,top,,,,,,,,1320.9269943750114,1321.341323583969,1321.3414875000017,1326.591014250007,1326.597566167009,1327.8411000419874,1327.8429754169774,1328.5918092919746,1328.5931276250049,1329.775329416967,mostlygreen,FinalRedContrast,FinalGreenContrast,1329.776321000012,1331.1920650000102,2,051926ep,001,2026-05-19_14h17.57.365,priming,,2026.1.3,59.94300918620283,2026-05-19 14h17.57.679303 -0700,
GR_Incongruent_RedCue_GreenProbe_Top,GreenGaborBoth.png,RedGaborBoth.png,GreenGaborDisappearTop.png,RedGaborBoth.png,Red.mp3,red,top,84,4,1,,,,1,4,84,12,1331.2078558750218,,,,,,,,,,,,,,,,top,,,,,,,,1331.192166834022,1331.4581960419891,1331.4583620839985,1336.7078800000018,1336.7142818749999,1337.9579240420135,1337.9594314999995,1338.5916669169674,1338.5923420839827,1339.525768209016,mostlygreen,FinalRedContrast,FinalGreenContrast,1339.526212249999,1340.892075833981,2,051926ep,001,2026-05-19_14h17.57.365,priming,,2026.1.3,59.94300918620283,2026-05-19 14h17.57.679303 -0700,
GR_Congruent_GreenCue_GreenProbe_Bottom,GreenGaborBoth.png,RedGaborBoth.png,GreenGaborDisappearBottom.png,RedGaborBoth.png,Green.mp3,green,bottom,85,5,1,,,,1,5,85,51,1340.9078160420177,,,,,,,,,,,,,,,,bottom,,,,,,,,1340.8939661249751,1341.258252916974,1341.258415542019,1346.5078237499692,1346.5154441249906,1347.7579513749806,1347.7596352089895,1349.1252944169682,1349.1263145420235,1351.1088217499782,evensplit,FinalRedContrast,FinalGreenContrast,1351.1098283340107,1352.1755467919866,2,051926ep,001,2026-05-19_14h17.57.365,priming,,2026.1.3,59.94300918620283,2026-05-19 14h17.57.679303 -0700,
GR_Congruent_GreenCue_GreenProbe_Top,GreenGaborBoth.png,RedGaborBoth.png,GreenGaborDisappearTop.png,RedGaborBoth.png,Green.mp3,green,top,86,6,1,,,,1,6,86,26,1352.191231667006,,,,,,,,,,,,,,,,bottom,,,,,,,,1352.1756627919967,1352.5582755419891,1352.5584372919984,1357.807909791998,1357.8155333750183,1359.0577800419996,1359.0595665419823,1360.0251533340197,1360.0265297089936,1361.075558541983,mostlygreen,FinalRedContrast,FinalGreenContrast,1361.0765932089998,1362.6588961670059,2,051926ep,001,2026-05-19_14h17.57.365,priming,,2026.1.3,59.94300918620283,2026-05-19 14h17.57.679303 -0700,
GR_Congruent_GreenCue_GreenProbe_Bottom,GreenGaborBoth.png,RedGaborBoth.png,GreenGaborDisappearBottom.png,RedGaborBoth.png,Green.mp3,green,bottom,87,7,1,,,,1,7,87,43,1362.6746226249961,,,,,,,,,,,,,,,,bottom,,,,,,,,1362.6589936250239,1363.108351917006,1363.1085159590002,1368.3580619170098,1368.3655994170113,1369.6081128339865,1369.609749833995,1370.2085990839987,1370.209892208979,1371.675484458974,mostlygreen,FinalRedContrast,FinalGreenContrast,1371.6762492089765,1372.6755654590088,2,051926ep,001,2026-05-19_14h17.57.365,priming,,2026.1.3,59.94300918620283,2026-05-19 14h17.57.679303 -0700,
GR_Congruent_RedCue_RedProbe_Top,GreenGaborBoth.png,RedGaborBoth.png,GreenGaborBoth.png,RedGaborDisappearTop.png,Red.mp3,red,top,88,8,1,,,,1,8,88,24,1372.6912738750107,,,,,,,,,,,,,,,,top,,,,,,,,1372.6772101669922,1373.124980499968,1373.1251420420012,1378.3747973749996,1378.3824127090047,1379.6246930839843,1379.6265080840094,1380.508473749971,1380.5101694170153,1381.3921914590173,mostlygreen,FinalRedContrast,FinalGreenContrast,1381.3933397500077,1382.7588484999724,2,051926ep,001,2026-05-19_14h17.57.365,priming,,2026.1.3,59.94300918620283,2026-05-19 14h17.57.679303 -0700,
GR_Congruent_GreenCue_GreenProbe_Top,GreenGaborBoth.png,RedGaborBoth.png,GreenGaborDisappearTop.png,RedGaborBoth.png,Green.mp3,green,top,89,9,1,,,,1,9,89,34,1382.774609917018,,,,,,,,,,,,,,,,top,,,,,,,,1382.760652499972,1383.10828437499,1383.1084481250145,1388.3580531670013,1388.3656685419846,1389.6080632919911,1389.6094093340216,1390.2917935840087,1390.2935518749873,1391.8589689590153,mostlygreen,FinalRedContrast,FinalGreenContrast,1391.859975166968,1393.3425537089934,2,051926ep,001,2026-05-19_14h17.57.365,priming,,2026.1.3,59.94300918620283,2026-05-19 14h17.57.679303 -0700,
GR_Congruent_GreenCue_GreenProbe_Top,GreenGaborBoth.png,RedGaborBoth.png,GreenGaborDisappearTop.png,RedGaborBoth.png,Green.mp3,green,top,90,10,1,,,,1,10,90,42,1393.3580848749843,,,,,,,,,,,,,,,,top,,,,,,,,1393.3426598749938,1393.6918287500157,1393.6919932499877,1398.9413753749686,1398.9477855419973,1400.191408750019,1400.1928752919775,1402.258556041983,1402.2596870000125,1403.9256629589945,mostlyred,FinalRedContrast,FinalGreenContrast,1403.926727833983,1405.092346749967,2,051926ep,001,2026-05-19_14h17.57.365,priming,,2026.1.3,59.94300918620283,2026-05-19 14h17.57.679303 -0700,
RR_non_riv_catch_GreenCue_RedProbe_Bottom,Blank.png,RedGaborBoth.png,Blank.png,RedGaborDisappearBottom.png,Green.mp3,green,bottom,91,11,1,,,,1,11,91,75,1405.1080640419968,,,,,,,,,,,,,,,,bottom,,,,,,,,1405.0924478750094,1405.458431667008,1405.4585958750104,1410.7081315839896,1410.7148822919698,1411.9580721670063,1411.9599957499886,1412.5086084589711,1412.5100972499931,1414.2256883339724,allred,FinalRedContrast,FinalGreenContrast,1414.226874792017,1416.0256307090167,2,051926ep,001,2026-05-19_14h17.57.365,priming,,2026.1.3,59.94300918620283,2026-05-19 14h17.57.679303 -0700,
GR_Congruent_RedCue_RedProbe_Top,GreenGaborBoth.png,RedGaborBoth.png,GreenGaborBoth.png,RedGaborDisappearTop.png,Red.mp3,red,top,92,12,1,,,,1,12,92,8,1416.0414485419751,,,,,,,,,,,,,,,,top,,,,,,,,1416.0272944999742,1416.5585354589857,1416.5587307090173,1421.8081682089833,1421.815715625009,1423.0582878749701,1423.0597785419668,1423.7921716669807,1423.7930616670055,1425.009164749994,evensplit,FinalRedContrast,FinalGreenContrast,1425.0101075840066,1426.109592791996,2,051926ep,001,2026-05-19_14h17.57.365,priming,,2026.1.3,59.94300918620283,2026-05-19 14h17.57.679303 -0700,
GR_Congruent_RedCue_RedProbe_Bottom,GreenGaborBoth.png,RedGaborBoth.png,GreenGaborBoth.png,RedGaborDisappearBottom.png,Red.mp3,red,bottom,93,13,1,,,,1,13,93,57,1426.124944375013,,,,,,,,,,,,,,,,bottom,,,,,,,,1426.1096925839665,1426.5752175420057,1426.57538200001,1431.8249234589748,1431.8325757500133,1433.0749459170038,1433.0761896250187,1433.825428000011,1433.8268920420087,1435.992476125015,evensplit,FinalRedContrast,FinalGreenContrast,1435.9936500840122,1437.4092122919974,2,051926ep,001,2026-05-19_14h17.57.365,priming,,2026.1.3,59.94300918620283,2026-05-19 14h17.57.679303 -0700,
GR_Congruent_GreenCue_GreenProbe_Bottom,GreenGaborBoth.png,RedGaborBoth.png,GreenGaborDisappearBottom.png,RedGaborBoth.png,Green.mp3,green,bottom,94,14,1,,,,1,14,94,3,1437.4248827499687,,,,,,,,,,,,,,,,top,,,,,,,,1437.4110698340228,1437.7255657499772,1437.7257473749924,1442.9748859590036,1442.9832734590163,1444.2250120000099,1444.2262078750064,1445.042018542008,1445.043482500012,1446.5592031669803,evensplit,FinalRedContrast,FinalGreenContrast,1446.55946554197,1447.6759084590012,2,051926ep,001,2026-05-19_14h17.57.365,priming,,2026.1.3,59.94300918620283,2026-05-19 14h17.57.679303 -0700,
GR_Congruent_RedCue_RedProbe_Top,GreenGaborBoth.png,RedGaborBoth.png,GreenGaborBoth.png,RedGaborDisappearTop.png,Red.mp3,red,top,95,15,1,,,,1,15,95,56,1447.691522374982,,,,,,,,,,,,,,,,bottom,,,,,,,,1447.6775238339906,1448.108623416978,1448.1087868339964,1453.3583346669911,1453.3662826250074,1454.6084103750181,1454.6101500000223,1455.7421559590148,1455.7434295419953,1456.6925244589802,evensplit,FinalRedContrast,FinalGreenContrast,1456.6938909589662,1458.2092102500028,2,051926ep,001,2026-05-19_14h17.57.365,priming,,2026.1.3,59.94300918620283,2026-05-19 14h17.57.679303 -0700,
GR_Congruent_RedCue_RedProbe_Bottom,GreenGaborBoth.png,RedGaborBoth.png,GreenGaborBoth.png,RedGaborDisappearBottom.png,Red.mp3,red,bottom,96,16,1,,,,1,16,96,33,1458.2249596249894,,,,,,,,,,,,,,,,top,,,,,,,,1458.209313749976,1458.8086016249727,1458.8087646249915,1464.0583185839932,1464.0656463339692,1465.3083450840204,1465.3097449169727,1466.3087259170134,1466.3103992919787,1467.5925489169895,mostlygreen,FinalRedContrast,FinalGreenContrast,1467.5932694170042,1469.3092287919717,2,051926ep,001,2026-05-19_14h17.57.365,priming,,2026.1.3,59.94300918620283,2026-05-19 14h17.57.679303 -0700,
GR_Incongruent_RedCue_GreenProbe_Top,GreenGaborBoth.png,RedGaborBoth.png,GreenGaborDisappearTop.png,RedGaborBoth.png,Red.mp3,red,top,97,17,1,,,,1,17,97,36,1469.3249116669758,,,,,,,,,,,,,,,,top,,,,,,,,1469.3093336669845,1469.691970083979,1469.6921387499897,1474.941652834008,1474.949697916978,1476.191679709009,1476.1935164589668,1476.8422405419988,1476.8432812090032,1477.742602250015,mostlygreen,FinalRedContrast,FinalGreenContrast,1477.7429624170181,1478.4926026249886,2,051926ep,001,2026-05-19_14h17.57.365,priming,,2026.1.3,59.94300918620283,2026-05-19 14h17.57.679303 -0700,
GR_Congruent_GreenCue_GreenProbe_Top,GreenGaborBoth.png,RedGaborBoth.png,GreenGaborDisappearTop.png,RedGaborBoth.png,Green.mp3,green,top,98,18,1,,,,1,18,98,58,1478.5082857090165,,,,,,,,,,,,,,,,top,,,,,,,,1478.4945731249754,1478.925689042022,1478.9258735419717,1484.1751287920051,1484.1815663750167,1485.4252448750194,1485.426451959007,1488.7091745000216,1488.7100277919671,1490.5264671249897,evensplit,FinalRedContrast,FinalGreenContrast,1490.5267761250143,1492.3426862920169,2,051926ep,001,2026-05-19_14h17.57.365,priming,,2026.1.3,59.94300918620283,2026-05-19 14h17.57.679303 -0700,
GR_Incongruent_RedCue_GreenProbe_Top,GreenGaborBoth.png,RedGaborBoth.png,GreenGaborDisappearTop.png,RedGaborBoth.png,Red.mp3,red,top,99,19,1,,,,1,19,99,44,1492.3584459170233,,,,,,,,,,,,,,,,top,,,,,,,,1492.3443575419951,1494.2921462919912,1494.292308959004,1499.5418279169826,1499.5483434589696,1500.7917863340117,1500.7938264589757,1502.0090940839727,1502.010552584019,1503.3593994170078,mostlygreen,FinalRedContrast,FinalGreenContrast,1503.3597598749911,1504.459422749991,2,051926ep,001,2026-05-19_14h17.57.365,priming,,2026.1.3,59.94300918620283,2026-05-19 14h17.57.679303 -0700,
GR_Congruent_GreenCue_GreenProbe_Top,GreenGaborBoth.png,RedGaborBoth.png,GreenGaborDisappearTop.png,RedGaborBoth.png,Green.mp3,green,top,100,20,1,,,,1,20,100,18,1504.4750913339667,,,,,,,,,,,,,,,,top,,,,,,,,1504.4613687500241,1504.892189333972,1504.8923589999904,1510.1418574170093,1510.1483429590007,1511.3919107919792,1511.3936467919848,1513.6922449590056,1513.69373704202,1514.592656333989,mostlygreen,FinalRedContrast,FinalGreenContrast,1514.5938303750008,1515.542636499973,2,051926ep,001,2026-05-19_14h17.57.365,priming,,2026.1.3,59.94300918620283,2026-05-19 14h17.57.679303 -0700,
GR_Incongruent_GreenCue_RedProbe_Top,GreenGaborBoth.png,RedGaborBoth.png,GreenGaborBoth.png,RedGaborDisappearTop.png,Green.mp3,green,top,101,21,1,,,,1,21,101,30,1515.5584705839865,,,,,,,,,,,,,,,,top,,,,,,,,1515.542733624985,1515.7588997500134,1515.7590667500044,1521.0086997500039,1521.0163442089688,1522.258694624994,1522.2600456249784,1523.442396916973,1523.4440856250003,1524.5761956250062,mostlygreen,FinalRedContrast,FinalGreenContrast,1524.5772901669843,1525.7428281669854,2,051926ep,001,2026-05-19_14h17.57.365,priming,,2026.1.3,59.94300918620283,2026-05-19 14h17.57.679303 -0700,
GR_Congruent_RedCue_RedProbe_Top,GreenGaborBoth.png,RedGaborBoth.png,GreenGaborBoth.png,RedGaborDisappearTop.png,Red.mp3,red,top,102,22,1,,,,1,22,102,48,1525.7586417919956,,,,,,,,,,,,,,,,top,,,,,,,,1525.744648916996,1526.3089662920102,1526.3091305840062,1531.5587098340038,1531.5650660839747,1532.8088732920005,1532.810231541982,1534.9590806670021,1534.9606282499735,1537.0095388339832,mostlyred,FinalRedContrast,FinalGreenContrast,1537.0101319999667,1538.709480874997,2,051926ep,001,2026-05-19_14h17.57.365,priming,,2026.1.3,59.94300918620283,2026-05-19 14h17.57.679303 -0700,
GR_Incongruent_RedCue_GreenProbe_Bottom,GreenGaborBoth.png,RedGaborBoth.png,GreenGaborDisappearBottom.png,RedGaborBoth.png,Red.mp3,red,bottom,103,23,1,,,,1,23,103,69,1538.7251644589705,,,,,,,,,,,,,,,,bottom,,,,,,,,1538.7095834169886,1539.109321624972,1539.1095044169924,1544.358618874976,1544.366540750023,1545.6086557090166,1545.6103834169917,1546.5424770839745,1546.5433646250167,1547.3761285839719,mostlygreen,FinalRedContrast,FinalGreenContrast,1547.3773860000074,1549.0095679169754,2,051926ep,001,2026-05-19_14h17.57.365,priming,,2026.1.3,59.94300918620283,2026-05-19 14h17.57.679303 -0700,
GR_Congruent_RedCue_RedProbe_Top,GreenGaborBoth.png,RedGaborBoth.png,GreenGaborBoth.png,RedGaborDisappearTop.png,Red.mp3,red,top,104,24,1,,,,1,24,104,16,1549.0254110840033,,,,,,,,,,,,,,,,top,,,,,,,,1549.009665791993,1824.7102028750232,1824.710369833978,1829.9598234589794,1829.968543541967,1831.2098423339776,1831.2115270419745,1831.810253167001,1831.8116622089874,1832.6273157920223,mostlygreen,FinalRedContrast,FinalGreenContrast,1832.6287926670047,1834.094025667,2,051926ep,001,2026-05-19_14h17.57.365,priming,,2026.1.3,59.94300918620283,2026-05-19 14h17.57.679303 -0700,
GR_Congruent_RedCue_RedProbe_Bottom,GreenGaborBoth.png,RedGaborBoth.png,GreenGaborBoth.png,RedGaborDisappearBottom.png,Red.mp3,red,bottom,105,25,1,,,,1,25,105,25,1834.109726166993,,,,,,,,,,,,,,,,bottom,,,,,,,,1834.0941219590022,1834.6101467920234,1834.61031525,1839.859958791989,1839.8675277499715,1841.1099173339899,1841.1116225419682,1843.1437209169962,1843.1452516249847,1844.6941488750163,mostlygreen,FinalRedContrast,FinalGreenContrast,1844.6948359590024,1846.594087000005,2,051926ep,001,2026-05-19_14h17.57.365,priming,,2026.1.3,59.94300918620283,2026-05-19 14h17.57.679303 -0700,
GR_Congruent_RedCue_RedProbe_Bottom,GreenGaborBoth.png,RedGaborBoth.png,GreenGaborBoth.png,RedGaborDisappearBottom.png,Red.mp3,red,bottom,106,26,1,,,,1,26,106,41,1846.609912084008,,,,,,,,,,,,,,,,bottom,,,,,,,,1846.5941851669922,1847.06056587497,1847.0607362089795,1852.309986541979,1852.3163697089767,1853.5599088749732,1853.562137833971,1854.4436772500048,1854.4451670839917,1855.994154458982,mostlygreen,FinalRedContrast,FinalGreenContrast,1855.9953085840098,1856.8274734999868,2,051926ep,001,2026-05-19_14h17.57.365,priming,,2026.1.3,59.94300918620283,2026-05-19 14h17.57.679303 -0700,
GR_Congruent_RedCue_RedProbe_Top,GreenGaborBoth.png,RedGaborBoth.png,GreenGaborBoth.png,RedGaborDisappearTop.png,Red.mp3,red,top,107,27,1,,,,1,27,107,32,1856.8431057499838,,,,,,,,,,,,,,,,bottom,,,,,,,,1856.8275813750224,1857.293592833972,1857.2937569170026,1862.5433197499951,1862.5497430419782,1863.793341749988,1863.7952267089859,1864.360423834005,1864.3617821669905,1867.7774595000083,mostlygreen,FinalRedContrast,FinalGreenContrast,1867.778232208977,1869.4107911669998,2,051926ep,001,2026-05-19_14h17.57.365,priming,,2026.1.3,59.94300918620283,2026-05-19 14h17.57.679303 -0700,
GR_Incongruent_GreenCue_RedProbe_Bottom,GreenGaborBoth.png,RedGaborBoth.png,GreenGaborBoth.png,RedGaborDisappearBottom.png,Green.mp3,green,bottom,108,28,1,,,,1,28,108,47,1869.4265739590046,,,,,,,,,,,,,,,,bottom,,,,,,,,1869.412683749979,1869.810333542002,1869.8105008340208,1875.0600907499902,1875.0664742920198,1876.3103210839909,1876.3107147499686,1876.8605137090199,1876.8623131249915,1879.2942335840198,mostlyred,FinalRedContrast,FinalGreenContrast,1879.295318917022,1880.46136341698,2,051926ep,001,2026-05-19_14h17.57.365,priming,,2026.1.3,59.94300918620283,2026-05-19 14h17.57.679303 -0700,
GR_Congruent_RedCue_RedProbe_Bottom,GreenGaborBoth.png,RedGaborBoth.png,GreenGaborBoth.png,RedGaborDisappearBottom.png,Red.mp3,red,bottom,109,29,1,,,,1,29,109,17,1880.4766972920042,,,,,,,,,,,,,,,,top,,,,,,,,1880.463051833969,1880.8607519170037,1880.8609347090241,1886.1100953340065,1886.1165245840093,1887.3601652919897,1887.3617717499728,1888.4105483749881,1888.4115383339813,1889.6109915840207,mostlygreen,FinalRedContrast,FinalGreenContrast,1889.6115910839872,1890.260829499981,2,051926ep,001,2026-05-19_14h17.57.365,priming,,2026.1.3,59.94300918620283,2026-05-19 14h17.57.679303 -0700,
GR_Incongruent_RedCue_GreenProbe_Top,GreenGaborBoth.png,RedGaborBoth.png,GreenGaborDisappearTop.png,RedGaborBoth.png,Red.mp3,red,top,110,30,1,,,,1,30,110,28,1890.2767778339912,,,,,,,,,,,,,,,,top,,,,,,,,1890.2609282499761,1890.8938266250188,1890.893989708973,1896.1433996669948,1896.1509579169797,1897.3933889999753,1897.39514649997,1898.343803292024,1898.3450002089958,1899.2442850840162,mostlygreen,FinalRedContrast,FinalGreenContrast,1899.2453380419756,1900.2442719169776,2,051926ep,001,2026-05-19_14h17.57.365,priming,,2026.1.3,59.94300918620283,2026-05-19 14h17.57.679303 -0700,
GR_Incongruent_GreenCue_RedProbe_Top,GreenGaborBoth.png,RedGaborBoth.png,GreenGaborBoth.png,RedGaborDisappearTop.png,Green.mp3,green,top,111,31,1,,,,1,31,111,22,1900.2600276669837,,,,,,,,,,,,,,,,bottom,,,,,,,,1900.2462559589767,1900.7104072920047,1900.7105727089802,1905.9602837089915,1905.9666277089855,1907.2601351250196,1907.261837375001,1909.8439891249873,1909.845654083998,1911.1611320420052,mostlygreen,FinalRedContrast,FinalGreenContrast,1911.1621319589904,1912.027719250007,2,051926ep,001,2026-05-19_14h17.57.365,priming,,2026.1.3,59.94300918620283,2026-05-19 14h17.57.679303 -0700,
GR_Incongruent_GreenCue_RedProbe_Top,GreenGaborBoth.png,RedGaborBoth.png,GreenGaborBoth.png,RedGaborDisappearTop.png,Green.mp3,green,top,112,32,1,,,,1,32,112,38,1912.0434397089994,,,,,,,,,,,,,,,,bottom,,,,,,,,1912.0278435419896,1912.5772142090136,1912.5773805839708,1917.8269948749803,1917.8333352920017,1919.076949624985,1919.0784298750223,1919.8610407499946,1919.8615881250007,1921.4443645839929,mostlygreen,FinalRedContrast,FinalGreenContrast,1921.445561416971,1922.8610216670204,2,051926ep,001,2026-05-19_14h17.57.365,priming,,2026.1.3,59.94300918620283,2026-05-19 14h17.57.679303 -0700,
GR_Incongruent_RedCue_GreenProbe_Bottom,GreenGaborBoth.png,RedGaborBoth.png,GreenGaborDisappearBottom.png,RedGaborBoth.png,Red.mp3,red,bottom,113,33,1,,,,1,33,113,29,1922.8768602500204,,,,,,,,,,,,,,,,bottom,,,,,,,,1922.8629090840113,1923.3106232499704,1923.3107878749724,1928.5601328749908,1928.5676386670093,1929.8101784589817,1929.811971499992,1930.82727191702,1930.828844374977,1931.8110682499828,mostlygreen,FinalRedContrast,FinalGreenContrast,1931.8117904170067,1932.9443126249826,2,051926ep,001,2026-05-19_14h17.57.365,priming,,2026.1.3,59.94300918620283,2026-05-19 14h17.57.679303 -0700,
GR_Congruent_GreenCue_GreenProbe_Top,GreenGaborBoth.png,RedGaborBoth.png,GreenGaborDisappearTop.png,RedGaborBoth.png,Green.mp3,green,top,114,34,1,,,,1,34,114,66,1932.9601923340233,,,,,,,,,,,,,,,,top,,,,,,,,1932.946312459011,1933.3604781670147,1933.3606423339806,1938.6103036249988,1938.6166429169825,1939.8603228339925,1939.8621672919835,1940.510799333977,1940.511473459017,1941.8445294590201,mostlyred,FinalRedContrast,FinalGreenContrast,1941.8455604999908,1942.99457595899,2,051926ep,001,2026-05-19_14h17.57.365,priming,,2026.1.3,59.94300918620283,2026-05-19 14h17.57.679303 -0700,
GR_Incongruent_GreenCue_RedProbe_Bottom,GreenGaborBoth.png,RedGaborBoth.png,GreenGaborBoth.png,RedGaborDisappearBottom.png,Green.mp3,green,bottom,115,35,1,,,,1,35,115,31,1943.0101669590222,,,,,,,,,,,,,,,,bottom,,,,,,,,1942.9947118749842,1943.5772669590078,1943.5774302919745,1948.827021709003,1948.8332807919942,1950.077044125006,1950.0783442090033,1950.7107914999942,1950.7122209590161,1952.194505041989,allgreen,FinalRedContrast,FinalGreenContrast,1952.1955738340039,1954.0444984170026,2,051926ep,001,2026-05-19_14h17.57.365,priming,,2026.1.3,59.94300918620283,2026-05-19 14h17.57.679303 -0700,
GR_Congruent_GreenCue_GreenProbe_Bottom,GreenGaborBoth.png,RedGaborBoth.png,GreenGaborDisappearBottom.png,RedGaborBoth.png,Green.mp3,green,bottom,116,36,1,,,,1,36,116,35,1954.0602892920142,,,,,,,,,,,,,,,,bottom,,,,,,,,1954.0445958750206,1954.7939864589716,1954.7941479170113,1960.0436192500056,1960.0515595839825,1961.2935999589972,1961.2955304589705,1962.3440450839698,1962.3459009170183,1964.2277587919962,evensplit,FinalRedContrast,FinalGreenContrast,1964.2288888340117,1965.0615561669692,2,051926ep,001,2026-05-19_14h17.57.365,priming,,2026.1.3,59.94300918620283,2026-05-19 14h17.57.679303 -0700,
GR_Incongruent_GreenCue_RedProbe_Bottom,GreenGaborBoth.png,RedGaborBoth.png,GreenGaborBoth.png,RedGaborDisappearBottom.png,Green.mp3,green,bottom,117,37,1,,,,1,37,117,7,1965.0769549999968,,,,,,,,,,,,,,,,bottom,,,,,,,,1965.0616532919812,1965.443937458971,1965.4441016669734,1970.693812542013,1970.7003324169782,1971.943785624986,1971.9459491670132,1972.8445992500056,1972.8455318749766,1973.7946292919805,mostlyred,FinalRedContrast,FinalGreenContrast,1973.7957632499747,1975.0112871669699,2,051926ep,001,2026-05-19_14h17.57.365,priming,,2026.1.3,59.94300918620283,2026-05-19 14h17.57.679303 -0700,
RR_non_riv_catch_RedCue_RedProbe_Bottom,Blank.png,RedGaborBoth.png,Blank.png,RedGaborDisappearBottom.png,Red.mp3,red,bottom,118,38,1,,,,1,38,118,73,1975.0270943749929,,,,,,,,,,,,,,,,bottom,,,,,,,,1975.0129450840177,1975.4940786670195,1975.4942408339703,1980.7438019589754,1980.7500764169963,1981.9938415000215,1981.9955373340053,1985.1442396250204,1985.1453972919844,1985.961351291975,mostlyred,FinalRedContrast,FinalGreenContrast,1985.9619245000067,1987.278065749968,2,051926ep,001,2026-05-19_14h17.57.365,priming,,2026.1.3,59.94300918620283,2026-05-19 14h17.57.679303 -0700,
GR_Incongruent_GreenCue_RedProbe_Top,GreenGaborBoth.png,RedGaborBoth.png,GreenGaborBoth.png,RedGaborDisappearTop.png,Green.mp3,green,top,119,39,1,,,,1,39,119,46,1987.2936352919787,,,,,,,,,,,,,,,,top,,,,,,,,1987.279876000015,1987.810820874991,1987.8109872500063,1993.0604259590036,1993.068337625009,1994.3104523340007,1994.311706834007,1996.4942212500027,1996.4958708339836,1997.5778909170185,mostlygreen,FinalRedContrast,FinalGreenContrast,1997.5790532499668,1998.2280922919745,2,051926ep,001,2026-05-19_14h17.57.365,priming,,2026.1.3,59.94300918620283,2026-05-19 14h17.57.679303 -0700,
GR_Congruent_GreenCue_GreenProbe_Top,GreenGaborBoth.png,RedGaborBoth.png,GreenGaborDisappearTop.png,RedGaborBoth.png,Green.mp3,green,top,120,40,1,,,,1,40,120,50,1998.2438017919776,,,,,,,,,,,,,,,,top,,,,,,,,1998.2281995000085,1998.8942888340098,1998.8944514589966,2004.143959500012,2004.1515205419855,2005.3939602089813,2005.395818250021,2006.0443742090138,2006.045955916983,2006.8617429590086,mostlygreen,FinalRedContrast,FinalGreenContrast,2006.8620315840235,2007.8452149590012,2,051926ep,001,2026-05-19_14h17.57.365,priming,,2026.1.3,59.94300918620283,2026-05-19 14h17.57.679303 -0700,
GR_Incongruent_GreenCue_RedProbe_Bottom,GreenGaborBoth.png,RedGaborBoth.png,GreenGaborBoth.png,RedGaborDisappearBottom.png,Green.mp3,green,bottom,121,41,1,,,,1,41,121,71,2007.8605638750014,,,,,,,,,,,,,,,,bottom,,,,,,,,2007.8453119170154,2008.2942312919768,2008.2944047090132,2013.5439702500007,2013.551692041976,2014.7939397500013,2014.7952890419983,2016.127812583989,2016.1293160420028,2017.644674042007,mostlygreen,FinalRedContrast,FinalGreenContrast,2017.645865666971,2018.3947451669956,2,051926ep,001,2026-05-19_14h17.57.365,priming,,2026.1.3,59.94300918620283,2026-05-19 14h17.57.679303 -0700,
GR_Incongruent_GreenCue_RedProbe_Bottom,GreenGaborBoth.png,RedGaborBoth.png,GreenGaborBoth.png,RedGaborDisappearBottom.png,Green.mp3,green,bottom,122,42,1,,,,1,42,122,39,2018.4105759999948,,,,,,,,,,,,,,,,bottom,,,,,,,,2018.394841625006,2018.7608856669976,2018.761052375019,2024.0106757499743,2024.017136459006,2025.2607018339913,2025.2620612499886,2026.044783041987,2026.0455027919961,2028.0948388749966,mostlygreen,FinalRedContrast,FinalGreenContrast,2028.09546529199,2029.0448194170021,2,051926ep,001,2026-05-19_14h17.57.365,priming,,2026.1.3,59.94300918620283,2026-05-19 14h17.57.679303 -0700,
GG_non_riv_catch_GreenCue_GreenProbe_Top,GreenGaborBoth.png,Blank.png,GreenGaborDisappearTop.png,Blank.png,Green.mp3,green,top,123,43,1,,,,1,43,123,78,2029.0604915840086,,,,,,,,,,,,,,,,top,,,,,,,,2029.0449495840003,2029.6942825840088,2029.6944472090108,2034.9439996670117,2034.9502526249853,2036.1941014169715,2036.1952817499987,2036.8944309590152,2036.8961381249828,2037.8282832920086,evensplit,FinalRedContrast,FinalGreenContrast,2037.8288297089748,2038.7615250420058,2,051926ep,001,2026-05-19_14h17.57.365,priming,,2026.1.3,59.94300918620283,2026-05-19 14h17.57.679303 -0700,
GR_Incongruent_RedCue_GreenProbe_Bottom,GreenGaborBoth.png,RedGaborBoth.png,GreenGaborDisappearBottom.png,RedGaborBoth.png,Red.mp3,red,bottom,124,44,1,,,,1,44,124,37,2038.7773889590171,,,,,,,,,,,,,,,,top,,,,,,,,2038.7632902499754,2039.2942833749694,2039.2944501669845,2044.5440426249988,2044.5517053750227,2045.7941282090032,2045.795609791996,2046.4778947089799,2046.4793166670133,2048.045318874996,mostlyred,FinalRedContrast,FinalGreenContrast,2048.045580542006,2049.161606959009,2,051926ep,001,2026-05-19_14h17.57.365,priming,,2026.1.3,59.94300918620283,2026-05-19 14h17.57.679303 -0700,
GR_Incongruent_RedCue_GreenProbe_Top,GreenGaborBoth.png,RedGaborBoth.png,GreenGaborDisappearTop.png,RedGaborBoth.png,Red.mp3,red,top,125,45,1,,,,1,45,125,4,2049.177336499968,,,,,,,,,,,,,,,,bottom,,,,,,,,2049.1617471249774,2057.1443041249877,2057.144469874969,2062.3941911250004,2062.400712416973,2063.644248249999,2063.6458313749754,2064.778017124976,2064.779439500009,2066.061673999997,allred,FinalRedContrast,FinalGreenContrast,2066.0626745839836,2067.2283814999973,2,051926ep,001,2026-05-19_14h17.57.365,priming,,2026.1.3,59.94300918620283,2026-05-19 14h17.57.679303 -0700,
GR_Incongruent_RedCue_GreenProbe_Top,GreenGaborBoth.png,RedGaborBoth.png,GreenGaborDisappearTop.png,RedGaborBoth.png,Red.mp3,red,top,126,46,1,,,,1,46,126,60,2067.2441359590157,,,,,,,,,,,,,,,,top,,,,,,,,2067.228478083969,2067.811212499975,2067.811377334001,2073.0608161669807,2073.0672180840047,2074.310912500019,2074.312596166972,2075.2613024589955,2075.2627227919875,2076.261764916999,mostlygreen,FinalRedContrast,FinalGreenContrast,2076.262771916983,2077.5617229170166,2,051926ep,001,2026-05-19_14h17.57.365,priming,,2026.1.3,59.94300918620283,2026-05-19 14h17.57.679303 -0700,
RR_non_riv_catch_RedCue_RedProbe_Top,Blank.png,RedGaborBoth.png,Blank.png,RedGaborDisappearTop.png,Red.mp3,red,top,127,47,1,,,,1,47,127,72,2077.5774726250092,,,,,,,,,,,,,,,,top,,,,,,,,2077.5618295840104,2078.161198000016,2078.1613595000235,2083.4108722090023,2083.4163699169876,2084.660897416994,2084.6625897919876,2085.811232500011,2085.812712959014,2086.595014667022,mostlygreen,FinalRedContrast,FinalGreenContrast,2086.596131666971,2089.078364667017,2,051926ep,001,2026-05-19_14h17.57.365,priming,,2026.1.3,59.94300918620283,2026-05-19 14h17.57.679303 -0700,
GR_Incongruent_GreenCue_RedProbe_Top,GreenGaborBoth.png,RedGaborBoth.png,GreenGaborBoth.png,RedGaborDisappearTop.png,Green.mp3,green,top,128,48,1,,,,1,48,128,6,2089.0940752089955,,,,,,,,,,,,,,,,top,,,,,,,,2089.080249874969,2089.7111447500065,2089.711312374973,2094.961007917009,2094.967324708996,2096.211006583995,2096.212212249986,2098.394746750011,2098.3968369169743,2099.245189875015,mostlygreen,FinalRedContrast,FinalGreenContrast,2099.246238374966,2100.311880833993,2,051926ep,001,2026-05-19_14h17.57.365,priming,,2026.1.3,59.94300918620283,2026-05-19 14h17.57.679303 -0700,
GR_Incongruent_RedCue_GreenProbe_Bottom,GreenGaborBoth.png,RedGaborBoth.png,GreenGaborDisappearBottom.png,RedGaborBoth.png,Red.mp3,red,bottom,129,49,1,,,,1,49,129,53,2100.3275954590063,,,,,,,,,,,,,,,,top,,,,,,,,2100.313476042007,2101.1446558340103,2101.144817374996,2106.394313041994,2106.400644709007,2107.644368792011,2107.6459932089783,2108.4613424169947,2108.4621593339834,2109.3784945840016,mostlyred,FinalRedContrast,FinalGreenContrast,2109.3791494590114,2110.478479499987,3,051926ep,001,2026-05-19_14h17.57.365,priming,,2026.1.3,59.94300918620283,2026-05-19 14h17.57.679303 -0700,
GR_Congruent_RedCue_RedProbe_Top,GreenGaborBoth.png,RedGaborBoth.png,GreenGaborBoth.png,RedGaborDisappearTop.png,Red.mp3,red,top,130,50,1,,,,1,50,130,64,2110.494329917012,,,,,,,,,,,,,,,,top,,,,,,,,2110.478577916976,2111.1446077090222,2111.1447723750025,2116.394334208977,2116.400707874971,2117.644281374989,2117.6460036250064,2119.028218749969,2119.0297039590077,2119.6952449170058,evensplit,FinalRedContrast,FinalGreenContrast,2119.69597637502,2120.761718416994,2,051926ep,001,2026-05-19_14h17.57.365,priming,,2026.1.3,59.94300918620283,2026-05-19 14h17.57.679303 -0700,
GR_Congruent_GreenCue_GreenProbe_Top,GreenGaborBoth.png,RedGaborBoth.png,GreenGaborDisappearTop.png,RedGaborBoth.png,Green.mp3,green,top,131,51,1,,,,1,51,131,2,2120.777563666983,,,,,,,,,,,,,,,,top,,,,,,,,2120.763686041988,2121.277927541989,2121.278091959015,2126.5277341670007,2126.5340984999784,2127.7777859169873,2127.779485417006,2129.194837042014,2129.1963718339684,2129.978565874975,evensplit,FinalRedContrast,FinalGreenContrast,2129.979736458976,2130.5952042919816,2,051926ep,001,2026-05-19_14h17.57.365,priming,,2026.1.3,59.94300918620283,2026-05-19 14h17.57.679303 -0700,
GR_Incongruent_RedCue_GreenProbe_Bottom,GreenGaborBoth.png,RedGaborBoth.png,GreenGaborDisappearBottom.png,RedGaborBoth.png,Red.mp3,red,bottom,132,52,1,,,,1,52,132,61,2130.6110626250156,,,,,,,,,,,,,,,,bottom,,,,,,,,2130.596835833974,2131.111428583972,2131.1115938749863,2136.361112124985,2136.3674305420136,2137.611140791967,2137.6131177920033,2138.811578334018,2138.8131550420076,2139.8619679589756,mostlygreen,FinalRedContrast,FinalGreenContrast,2139.862244750024,2141.011958041985,2,051926ep,001,2026-05-19_14h17.57.365,priming,,2026.1.3,59.94300918620283,2026-05-19 14h17.57.679303 -0700,
GR_Congruent_GreenCue_GreenProbe_Bottom,GreenGaborBoth.png,RedGaborBoth.png,GreenGaborDisappearBottom.png,RedGaborBoth.png,Green.mp3,green,bottom,133,53,1,,,,1,53,133,11,2141.0276966249803,,,,,,,,,,,,,,,,bottom,,,,,,,,2141.014022834017,2141.4113952500047,2141.411558874999,2146.6611649590195,2146.667510041967,2147.911087833985,2147.9126803749823,2148.9615368340164,2148.96299679199,2150.0452779589687,mostlyred,FinalRedContrast,FinalGreenContrast,2150.0465266249957,2151.5453802919947,2,051926ep,001,2026-05-19_14h17.57.365,priming,,2026.1.3,59.94300918620283,2026-05-19 14h17.57.679303 -0700,
GR_Congruent_GreenCue_GreenProbe_Bottom,GreenGaborBoth.png,RedGaborBoth.png,GreenGaborDisappearBottom.png,RedGaborBoth.png,Green.mp3,green,bottom,134,54,1,,,,1,54,134,27,2151.5609644170036,,,,,,,,,,,,,,,,bottom,,,,,,,,2151.5454892090056,2152.344762334018,2152.344925125013,2157.594449584023,2157.600968791987,2158.844442792004,2158.846607375017,2159.445138250012,2159.446109167009,2160.4954062089673,mostlygreen,FinalRedContrast,FinalGreenContrast,2160.496495916974,2161.8788172919885,2,051926ep,001,2026-05-19_14h17.57.365,priming,,2026.1.3,59.94300918620283,2026-05-19 14h17.57.679303 -0700,
GR_Congruent_RedCue_RedProbe_Bottom,GreenGaborBoth.png,RedGaborBoth.png,GreenGaborBoth.png,RedGaborDisappearBottom.png,Red.mp3,red,bottom,135,55,1,,,,1,55,135,9,2161.894440917007,,,,,,,,,,,,,,,,bottom,,,,,,,,2161.8804868339794,2162.51156379201,2162.5117287089815,2167.761253250006,2167.7675930419937,2169.0112712089904,2169.0129212919855,2169.611654084001,2169.613166416995,2171.062066374987,mostlyred,FinalRedContrast,FinalGreenContrast,2171.063372291974,2172.2287048340077,2,051926ep,001,2026-05-19_14h17.57.365,priming,,2026.1.3,59.94300918620283,2026-05-19 14h17.57.679303 -0700,
GR_Congruent_RedCue_RedProbe_Bottom,GreenGaborBoth.png,RedGaborBoth.png,GreenGaborBoth.png,RedGaborDisappearBottom.png,Red.mp3,red,bottom,136,56,1,,,,1,56,136,49,2172.244655709015,,,,,,,,,,,,,,,,bottom,,,,,,,,2172.228801459016,2172.87814008398,2172.878303124977,2178.127792708983,2178.134345792001,2179.3779384170193,2179.3796176249743,2179.978333042003,2179.9799427089747,2180.8454199589905,mostlygreen,FinalRedContrast,FinalGreenContrast,2180.8465669169673,2182.945466541976,2,051926ep,001,2026-05-19_14h17.57.365,priming,,2026.1.3,59.94300918620283,2026-05-19 14h17.57.679303 -0700,
GR_Incongruent_RedCue_GreenProbe_Top,GreenGaborBoth.png,RedGaborBoth.png,GreenGaborDisappearTop.png,RedGaborBoth.png,Red.mp3,red,top,137,57,1,,,,1,57,137,52,2182.961204125022,,,,,,,,,,,,,,,,top,,,,,,,,2182.9455703339772,2183.244912958995,2183.2451002919697,2188.4945404590108,2188.5010495840106,2189.7445527089876,2189.7465137920226,2190.72834016697,2190.7300417500082,2191.962242333975,mostlygreen,FinalRedContrast,FinalGreenContrast,2191.963306583988,2193.4955257920083,2,051926ep,001,2026-05-19_14h17.57.365,priming,,2026.1.3,59.94300918620283,2026-05-19 14h17.57.679303 -0700,
GG_non_riv_catch_RedCue_GreenProbe_Bottom,GreenGaborBoth.png,Blank.png,GreenGaborDisappearBottom.png,Blank.png,Red.mp3,red,bottom,138,58,1,,,,1,58,138,77,2193.5112734590075,,,,,,,,,,,,,,,,bottom,,,,,,,,2193.4956242920016,2194.011992083979,2194.012176625023,2199.2613736250205,2199.266810958972,2200.511397583992,2200.5129660000093,2202.578432624985,2202.5800303340075,2203.3289107499877,mostlygreen,FinalRedContrast,FinalGreenContrast,2203.330079999985,2204.779255917005,2,051926ep,001,2026-05-19_14h17.57.365,priming,,2026.1.3,59.94300918620283,2026-05-19 14h17.57.679303 -0700,
