label,LstartingStim,RstartingStim,LvisualStim,RvisualStim,audioCue,visualCue,probe_loc,thisN,thisTrialN,thisRepN,staircase.thisTrialN,staircase.stepSize,staircase.intensity,trials.thisRepN,trials.thisTrialN,trials.thisN,trials.thisIndex,thisRow.t,notes,piloting,stim offset,continue_resp.keys,continue_resp.rt,continue_resp.duration,fixation.started,fixation.stopped,greenContrast,redContrast,adjusted_contrast.started,adjusted_contrast.stopped,staircase_response.started,staircase_response.stopped,stair_response,probe_response,staircase.response,prevTrial,isRed,isReversal,cumReversal,contrastArray,contrastAverage,start_trial.started,start_trial.stopped,cue.started,cue.stopped,probe.started,probe.stopped,probe_response.started,probe_response.stopped,subjective_response.started,subjective_response.stopped,subj_response,RedContrast,GreenContrast,vividness_response.started,vividness_response.stopped,vivid_response,participant,session,date,expName,expVersion,psychopyVersion,frameRate,expStart,
,,,,,,,,,,,,,,,,,,,,False,0.352,,,,,,,,,,,,,,,,,,,,,,,,,,,,,,,,,,,,,051926db,001,2026-05-19_10h28.58.807,priming,,2026.1.3,59.9448956503028,2026-05-19 10h28.59.119938 -0700,
,,,,,,,,,,,,,,,,,,,,,,space,27.516562165983487,None,,,,,,,,,,,,,,,,,,,,,,,,,,,,,,,,,,051926db,001,2026-05-19_10h28.58.807,priming,,2026.1.3,59.9448956503028,2026-05-19 10h28.59.119938 -0700,
,,,,,,,,,,,0,0.2,0.5,,,,,40.4154857500107,,,,,,,40.39966250001453,41.39898537500994,0.5,0.5,41.40591591701377,43.14894612500211,43.1542282080045,44.966258458036464,mostlygreen,green,0,1000,0,0,0,[],0,,,,,,,,,,,,,,,,,051926db,001,2026-05-19_10h28.58.807,priming,,2026.1.3,59.9448956503028,2026-05-19 10h28.59.119938 -0700,
,,,,,,,,,,,1,0.1,0.7,,,,,44.982130374992266,,,,,,,44.96653645799961,45.96560966700781,0.30000000000000004,0.7,45.96918870799709,47.71574691700516,47.7174193750252,48.7164686670294,allred,red,1,0,1,1,1,[],0,,,,,,,,,,,,,,,,,051926db,001,2026-05-19_10h28.58.807,priming,,2026.1.3,59.9448956503028,2026-05-19 10h28.59.119938 -0700,
,,,,,,,,,,,2,0.1,0.6,,,,,48.732379292021506,,,,,,,48.716712291992735,49.71568550000666,0.4,0.6,49.71917595801642,51.465727625007275,51.46746100002201,54.84970304201124,allred,red,1,1,1,0,1,[],0,,,,,,,,,,,,,,,,,051926db,001,2026-05-19_10h28.58.807,priming,,2026.1.3,59.9448956503028,2026-05-19 10h28.59.119938 -0700,
,,,,,,,,,,,3,0.1,0.5,,,,,54.86566154198954,,,,,,,54.849962417036295,55.84901154204272,0.5,0.5,55.85251012502704,57.59907220804598,57.60108916700119,60.09975824999856,mostlygreen,green,0,1,0,1,2,[],0,,,,,,,,,,,,,,,,,051926db,001,2026-05-19_10h28.58.807,priming,,2026.1.3,59.9448956503028,2026-05-19 10h28.59.119938 -0700,
,,,,,,,,,,,4,0.05,0.6,,,,,60.115564792009536,,,,,,,60.10003700002562,61.09907699999167,0.4,0.6,61.10258783301106,62.8490845420165,62.850771541998256,64.56642229203135,mostlyred,red,1,0,1,1,3,[],0,,,,,,,,,,,,,,,,,051926db,001,2026-05-19_10h28.58.807,priming,,2026.1.3,59.9448956503028,2026-05-19 10h28.59.119938 -0700,
,,,,,,,,,,,5,0.05,0.5499999999999999,,,,,64.58218079200014,,,,,,,64.56666958302958,65.5657447919948,0.45000000000000007,0.5499999999999999,65.56926445802674,67.31574925000314,67.31701683299616,67.93309175001923,mostlyred,red,1,1,1,0,3,[],0,,,,,,,,,,,,,,,,,051926db,001,2026-05-19_10h28.58.807,priming,,2026.1.3,59.9448956503028,2026-05-19 10h28.59.119938 -0700,
,,,,,,,,,,,6,0.05,0.49999999999999994,,,,,67.94890004204353,,,,,,,67.93334141699597,68.93242508301046,0.5,0.49999999999999994,68.93588854203699,70.68241050001234,70.68369633302791,71.81640037504258,mostlyred,red,1,1,1,0,3,[],0,,,,,,,,,,,,,,,,,051926db,001,2026-05-19_10h28.58.807,priming,,2026.1.3,59.9448956503028,2026-05-19 10h28.59.119938 -0700,
,,,,,,,,,,,7,0.05,0.44999999999999996,,,,,71.83226787502645,,,,,,,71.81664733303478,72.81569495802978,0.55,0.44999999999999996,72.81914666702505,74.56567383301444,74.56737354199868,76.26653850002913,mostlyred,red,1,1,1,0,3,[],0,,,,,,,,,,,,,,,,,051926db,001,2026-05-19_10h28.58.807,priming,,2026.1.3,59.9448956503028,2026-05-19 10h28.59.119938 -0700,
,,,,,,,,,,,8,0.05,0.39999999999999997,,,,,76.28248662501574,,,,,,,76.26678566704504,77.26580954203382,0.6000000000000001,0.39999999999999997,77.26920266699744,79.0158859170042,79.01741508301347,80.16655762499431,mostlygreen,green,0,1,0,1,4,[],0,,,,,,,,,,,,,,,,,051926db,001,2026-05-19_10h28.58.807,priming,,2026.1.3,59.9448956503028,2026-05-19 10h28.59.119938 -0700,
,,,,,,,,,,,9,0.05,0.44999999999999996,,,,,80.1824280419969,,,,,,,80.16688129201066,81.16586020804243,0.55,0.44999999999999996,81.16933191701537,82.91586720803753,82.91753141704248,83.6665825000382,mostlygreen,green,0,0,0,0,4,[],0,,,,,,,,,,,,,,,,,051926db,001,2026-05-19_10h28.58.807,priming,,2026.1.3,59.9448956503028,2026-05-19 10h28.59.119938 -0700,
,,,,,,,,,,,10,0.05,0.49999999999999994,,,,,83.68246579199331,,,,,,,83.6668415000313,84.66584187501576,0.5,0.49999999999999994,84.6692398750456,86.41588170803152,86.41755770804593,88.31653329200344,mostlygreen,green,0,0,0,0,4,[],0,,,,,,,,,,,,,,,,,051926db,001,2026-05-19_10h28.58.807,priming,,2026.1.3,59.9448956503028,2026-05-19 10h28.59.119938 -0700,
,,,,,,,,,,,11,0.05,0.5499999999999999,,,,,88.3324181670323,,,,,,,88.31677679199493,89.31584137503523,0.45000000000000007,0.5499999999999999,89.31927391700447,91.06582333298866,91.06791637500282,92.13323012500769,mostlygreen,green,0,0,0,0,4,[],0,,,,,,,,,,,,,,,,,051926db,001,2026-05-19_10h28.58.807,priming,,2026.1.3,59.9448956503028,2026-05-19 10h28.59.119938 -0700,
,,,,,,,,,,,12,0.025,0.6,,,,,92.14917595800944,,,,,,,92.13354887499008,93.13252141699195,0.4,0.6,93.13610733300447,94.88258941704407,94.88416533300187,96.81652829202358,mostlyred,red,1,0,1,1,5,[],0,,,,,,,,,,,,,,,,,051926db,001,2026-05-19_10h28.58.807,priming,,2026.1.3,59.9448956503028,2026-05-19 10h28.59.119938 -0700,
,,,,,,,,,,,13,0.025,0.575,,,,,96.83243499998935,,,,,,,96.81677929201396,97.81583108298946,0.42500000000000004,0.575,97.81931191700278,99.56582729204092,99.56778041704092,101.79985970800044,allred,red,1,1,1,0,5,[],0,,,,,,,,,,,,,,,,,051926db,001,2026-05-19_10h28.58.807,priming,,2026.1.3,59.9448956503028,2026-05-19 10h28.59.119938 -0700,
,,,,,,,,,,,14,0.025,0.5499999999999999,,,,,101.81574291700963,,,,,,,101.80011100001866,102.79916129203048,0.45000000000000007,0.5499999999999999,102.80262737500016,104.54935783299152,104.5513492920436,106.79990837501828,mostlyred,red,1,1,1,0,5,[],0,,,,,,,,,,,,,,,,,051926db,001,2026-05-19_10h28.58.807,priming,,2026.1.3,59.9448956503028,2026-05-19 10h28.59.119938 -0700,
,,,,,,,,,,,15,0.025,0.5249999999999999,,,,,106.81593904201873,,,,,,,106.80015191703569,107.79938758304343,0.4750000000000001,0.5249999999999999,107.80282550002448,109.54932595801074,109.55084174999502,112.01670029200613,mostlyred,red,1,1,1,0,5,[],0,,,,,,,,,,,,,,,,,051926db,001,2026-05-19_10h28.58.807,priming,,2026.1.3,59.9448956503028,2026-05-19 10h28.59.119938 -0700,
,,,,,,,,,,,16,0.025,0.4999999999999999,,,,,112.03253704198869,,,,,,,112.01694516703719,113.01599495799746,0.5000000000000001,0.4999999999999999,113.01940104202367,114.76597775000846,114.767905292043,116.38330712501192,mostlygreen,green,0,1,0,1,6,[0.4999999999999999],0.4999999999999999,,,,,,,,,,,,,,,,,051926db,001,2026-05-19_10h28.58.807,priming,,2026.1.3,59.9448956503028,2026-05-19 10h28.59.119938 -0700,
,,,,,,,,,,,17,0.025,0.5249999999999999,,,,,116.39920983300544,,,,,,,116.38355812500231,117.38264550000895,0.4750000000000001,0.5249999999999999,117.38609554199502,119.13266295799986,119.13423370802775,120.35006575001171,mostlyred,red,1,0,1,1,7,"[0.4999999999999999, 0.5249999999999999]",0.5125,,,,,,,,,,,,,,,,,051926db,001,2026-05-19_10h28.58.807,priming,,2026.1.3,59.9448956503028,2026-05-19 10h28.59.119938 -0700,
,,,,,,,,,,,18,0.025,0.4999999999999999,,,,,120.36589379201178,,,,,,,120.3503464999958,121.34928095800569,0.5000000000000001,0.4999999999999999,121.3527132080053,123.09939929202665,123.10078054200858,127.56662608298939,mostlygreen,green,0,1,0,1,8,"[0.4999999999999999, 0.5249999999999999, 0.4999999999999999]",0.5083333333333333,,,,,,,,,,,,,,,,,051926db,001,2026-05-19_10h28.58.807,priming,,2026.1.3,59.9448956503028,2026-05-19 10h28.59.119938 -0700,
,,,,,,,,,,,19,0.025,0.5249999999999999,,,,,127.5826020000386,,,,,,,127.56687641702592,128.5659291250049,0.4750000000000001,0.5249999999999999,128.56931170803728,130.31603004201315,130.31748887500726,132.7166658330243,mostlygreen,green,0,0,0,0,8,"[0.4999999999999999, 0.5249999999999999, 0.4999999999999999]",0.5083333333333333,,,,,,,,,,,,,,,,,051926db,001,2026-05-19_10h28.58.807,priming,,2026.1.3,59.9448956503028,2026-05-19 10h28.59.119938 -0700,
,,,,,,,,,,,20,0.025,0.5499999999999999,,,,,132.7326712080394,,,,,,,132.71691779204411,133.71596066700295,0.45000000000000007,0.5499999999999999,133.71943037502933,135.46612979203928,135.46748912503244,136.51677804201609,mostlyred,red,1,0,1,1,9,"[0.4999999999999999, 0.5249999999999999, 0.4999999999999999, 0.5499999999999999]",0.5187499999999999,,,,,,,,,,,,,,,,,051926db,001,2026-05-19_10h28.58.807,priming,,2026.1.3,59.9448956503028,2026-05-19 10h28.59.119938 -0700,
,,,,,,,,,,,21,0.025,0.5249999999999999,,,,,136.5326754170237,,,,,,,136.5171017080429,137.51615716703236,0.4750000000000001,0.5249999999999999,137.51960929203779,139.2661243749899,139.26794316701125,144.76681041700067,mostlyred,red,1,1,1,0,9,"[0.4999999999999999, 0.5249999999999999, 0.4999999999999999, 0.5499999999999999]",0.5187499999999999,,,,,,,,,,,,,,,,,051926db,001,2026-05-19_10h28.58.807,priming,,2026.1.3,59.9448956503028,2026-05-19 10h28.59.119938 -0700,
,,,,,,,,,,,22,0.025,0.4999999999999999,,,,,144.7826865420211,,,,,,,144.76706187502714,145.7661594169913,0.5000000000000001,0.4999999999999999,145.76957520801807,147.51607758301543,147.51774916698923,153.00043404201278,mostlygreen,green,0,1,0,1,10,"[0.4999999999999999, 0.5249999999999999, 0.4999999999999999, 0.5499999999999999, 0.4999999999999999]",0.5149999999999999,,,,,,,,,,,,,,,,,051926db,001,2026-05-19_10h28.58.807,priming,,2026.1.3,59.9448956503028,2026-05-19 10h28.59.119938 -0700,
,,,,,,,,,,,23,0.025,0.5249999999999999,,,,,153.01598095800728,,,,,,,153.00071170803858,153.99951225001132,0.4750000000000001,0.5249999999999999,154.00344754202524,155.74957079201704,155.75125983299222,157.03388441703282,mostlygreen,green,0,0,0,0,10,"[0.4999999999999999, 0.5249999999999999, 0.4999999999999999, 0.5499999999999999, 0.4999999999999999]",0.5149999999999999,,,,,,,,,,,,,,,,,051926db,001,2026-05-19_10h28.58.807,priming,,2026.1.3,59.9448956503028,2026-05-19 10h28.59.119938 -0700,
,,,,,,,,,,,24,0.025,0.5499999999999999,,,,,157.04936900001485,,,,,,,157.03417283302406,158.03277395799523,0.45000000000000007,0.5499999999999999,158.03624874999514,159.782744791999,159.78477037500124,161.25014179199934,mostlyred,red,1,0,1,1,11,"[0.4999999999999999, 0.5249999999999999, 0.4999999999999999, 0.5499999999999999, 0.4999999999999999, 0.5499999999999999]",0.5208333333333333,,,,,,,,,,,,,,,,,051926db,001,2026-05-19_10h28.58.807,priming,,2026.1.3,59.9448956503028,2026-05-19 10h28.59.119938 -0700,
,,,,,,,,,,,25,0.025,0.5249999999999999,,,,,161.26613445801195,,,,,,,161.25039150001248,162.2494718329981,0.4750000000000001,0.5249999999999999,162.25305845803814,163.99949733301764,164.0012756669894,165.85029170801863,mostlyred,red,1,1,1,0,11,"[0.4999999999999999, 0.5249999999999999, 0.4999999999999999, 0.5499999999999999, 0.4999999999999999, 0.5499999999999999]",0.5208333333333333,,,,,,,,,,,,,,,,,051926db,001,2026-05-19_10h28.58.807,priming,,2026.1.3,59.9448956503028,2026-05-19 10h28.59.119938 -0700,
,,,,,,,,,,,26,0.025,0.4999999999999999,,,,,165.8662162499968,,,,,,,165.85059712501243,166.84961145801935,0.5000000000000001,0.4999999999999999,166.85306645801757,168.5996361669968,168.60108133300673,170.76690545800375,mostlyred,red,1,1,1,0,11,"[0.4999999999999999, 0.5249999999999999, 0.4999999999999999, 0.5499999999999999, 0.4999999999999999, 0.5499999999999999]",0.5208333333333333,,,,,,,,,,,,,,,,,051926db,001,2026-05-19_10h28.58.807,priming,,2026.1.3,59.9448956503028,2026-05-19 10h28.59.119938 -0700,
,,,,,,,,,,,27,0.025,0.47499999999999987,,,,,170.78283008304425,,,,,,,170.76715912501095,171.7662465830217,0.5250000000000001,0.47499999999999987,171.76962983299745,173.51632408302976,173.51778129203012,175.0503128330456,mostlyred,red,1,1,1,0,11,"[0.4999999999999999, 0.5249999999999999, 0.4999999999999999, 0.5499999999999999, 0.4999999999999999, 0.5499999999999999]",0.5208333333333333,,,,,,,,,,,,,,,,,051926db,001,2026-05-19_10h28.58.807,priming,,2026.1.3,59.9448956503028,2026-05-19 10h28.59.119938 -0700,
,,,,,,,,,,,28,0.025,0.44999999999999984,,,,,175.06619566702284,,,,,,,175.05056391702965,176.04955158301163,0.5500000000000002,0.44999999999999984,176.05305366701214,177.79959295800654,177.80094366701087,178.95024129201192,mostlygreen,green,0,1,0,1,12,"[0.4999999999999999, 0.5249999999999999, 0.4999999999999999, 0.5499999999999999, 0.4999999999999999, 0.5499999999999999, 0.44999999999999984]",0.5107142857142856,,,,,,,,,,,,,,,,,051926db,001,2026-05-19_10h28.58.807,priming,,2026.1.3,59.9448956503028,2026-05-19 10h28.59.119938 -0700,
,,,,,,,,,,,29,0.025,0.47499999999999987,,,,,178.96614904201124,,,,,,,178.9504884580383,179.94955333299004,0.5250000000000001,0.47499999999999987,179.95296108303592,181.6995065420051,181.70112304203212,185.16721254203003,mostlygreen,green,0,0,0,0,12,"[0.4999999999999999, 0.5249999999999999, 0.4999999999999999, 0.5499999999999999, 0.4999999999999999, 0.5499999999999999, 0.44999999999999984]",0.5107142857142856,,,,,,,,,,,,,,,,,051926db,001,2026-05-19_10h28.58.807,priming,,2026.1.3,59.9448956503028,2026-05-19 10h28.59.119938 -0700,
,,,,,,,,,,,30,0.025,0.4999999999999999,,,,,185.18297079199692,,,,,,,185.16753420804162,186.1663888330222,0.5000000000000001,0.4999999999999999,186.1709724580287,187.9162535420037,187.91823479201412,191.25046541698975,mostlygreen,green,0,0,0,0,12,"[0.4999999999999999, 0.5249999999999999, 0.4999999999999999, 0.5499999999999999, 0.4999999999999999, 0.5499999999999999, 0.44999999999999984]",0.5107142857142856,,,,,,,,,,,,,,,,,051926db,001,2026-05-19_10h28.58.807,priming,,2026.1.3,59.9448956503028,2026-05-19 10h28.59.119938 -0700,
,,,,,,,,,,,31,0.025,0.5249999999999999,,,,,191.26616462500533,,,,,,,191.25075466703856,192.24996283301152,0.4750000000000001,0.5249999999999999,192.25453062501037,193.9995199580444,194.0009156250162,197.31725745799486,mostlygreen,green,0,0,0,0,12,"[0.4999999999999999, 0.5249999999999999, 0.4999999999999999, 0.5499999999999999, 0.4999999999999999, 0.5499999999999999, 0.44999999999999984]",0.5107142857142856,,,,,,,,,,,,,,,,,051926db,001,2026-05-19_10h28.58.807,priming,,2026.1.3,59.9448956503028,2026-05-19 10h28.59.119938 -0700,
,,,,,,,,,,,32,0.025,0.5499999999999999,,,,,197.3330992500414,,,,,,,197.31759795802645,198.31643000000622,0.45000000000000007,0.5499999999999999,198.3202097080066,200.06636491703102,200.0680167080136,201.6339423750178,mostlyred,red,1,0,1,1,13,"[0.4999999999999999, 0.5249999999999999, 0.4999999999999999, 0.5499999999999999, 0.4999999999999999, 0.5499999999999999, 0.44999999999999984, 0.5499999999999999]",0.5156249999999999,,,,,,,,,,,,,,,,,051926db,001,2026-05-19_10h28.58.807,priming,,2026.1.3,59.9448956503028,2026-05-19 10h28.59.119938 -0700,
,,,,,,,,,,,33,0.025,0.5249999999999999,,,,,201.64960862504086,,,,,,,201.63423466699896,202.63299470802303,0.4750000000000001,0.5249999999999999,202.6366355830105,204.3829994170228,204.3845675420016,205.86717141699046,mostlyred,red,1,1,1,0,13,"[0.4999999999999999, 0.5249999999999999, 0.4999999999999999, 0.5499999999999999, 0.4999999999999999, 0.5499999999999999, 0.44999999999999984, 0.5499999999999999]",0.5156249999999999,,,,,,,,,,,,,,,,,051926db,001,2026-05-19_10h28.58.807,priming,,2026.1.3,59.9448956503028,2026-05-19 10h28.59.119938 -0700,
,,,,,,,,,,,34,0.025,0.4999999999999999,,,,,205.882909958018,,,,,,,205.86743987502996,206.86633766704472,0.5000000000000001,0.4999999999999999,206.86999133299105,208.61649616702925,208.61813933303347,209.9172794999904,mostlyred,red,1,1,1,0,13,"[0.4999999999999999, 0.5249999999999999, 0.4999999999999999, 0.5499999999999999, 0.4999999999999999, 0.5499999999999999, 0.44999999999999984, 0.5499999999999999]",0.5156249999999999,,,,,,,,,,,,,,,,,051926db,001,2026-05-19_10h28.58.807,priming,,2026.1.3,59.9448956503028,2026-05-19 10h28.59.119938 -0700,
,,,,,,,,,,,35,0.025,0.47499999999999987,,,,,209.9330536670168,,,,,,,209.91754850000143,210.91658533300506,0.5250000000000001,0.47499999999999987,210.9209178329911,212.66638204199262,212.66798558301525,214.13396983302664,mostlygreen,green,0,1,0,1,14,"[0.4999999999999999, 0.5249999999999999, 0.4999999999999999, 0.5499999999999999, 0.4999999999999999, 0.5499999999999999, 0.44999999999999984, 0.5499999999999999, 0.47499999999999987]",0.511111111111111,,,,,,,,,,,,,,,,,051926db,001,2026-05-19_10h28.58.807,priming,,2026.1.3,59.9448956503028,2026-05-19 10h28.59.119938 -0700,
,,,,,,,,,,,36,0.025,0.4999999999999999,,,,,214.14968358300393,,,,,,,214.1342558329925,215.13312504201895,0.5000000000000001,0.4999999999999999,215.13698675000342,216.8835416249931,216.88447616703343,219.33407475001877,mostlygreen,green,0,0,0,0,14,"[0.4999999999999999, 0.5249999999999999, 0.4999999999999999, 0.5499999999999999, 0.4999999999999999, 0.5499999999999999, 0.44999999999999984, 0.5499999999999999, 0.47499999999999987]",0.511111111111111,,,,,,,,,,,,,,,,,051926db,001,2026-05-19_10h28.58.807,priming,,2026.1.3,59.9448956503028,2026-05-19 10h28.59.119938 -0700,
,,,,,,,,,,,37,0.025,0.5249999999999999,,,,,219.34971295803552,,,,,,,219.3343687080196,220.33314050000627,0.4750000000000001,0.5249999999999999,220.3370134580182,222.08297558303457,222.08460766699864,224.61726037500193,mostlyred,red,1,0,1,1,15,"[0.4999999999999999, 0.5249999999999999, 0.4999999999999999, 0.5499999999999999, 0.4999999999999999, 0.5499999999999999, 0.44999999999999984, 0.5499999999999999, 0.47499999999999987, 0.5249999999999999]",0.5124999999999998,,,,,,,,,,,,,,,,,051926db,001,2026-05-19_10h28.58.807,priming,,2026.1.3,59.9448956503028,2026-05-19 10h28.59.119938 -0700,
,,,,,,,,,,,38,0.025,0.4999999999999999,,,,,224.6329716250184,,,,,,,224.61754308303352,225.61654000001727,0.5000000000000001,0.4999999999999999,225.62043775001075,227.36638858303195,227.3678039580118,230.1337250000215,mostlygreen,green,0,1,0,1,16,"[0.4999999999999999, 0.5249999999999999, 0.4999999999999999, 0.5499999999999999, 0.4999999999999999, 0.5499999999999999, 0.44999999999999984, 0.5499999999999999, 0.47499999999999987, 0.5249999999999999, 0.4999999999999999]",0.5113636363636362,,,,,,,,,,,,,,,,,051926db,001,2026-05-19_10h28.58.807,priming,,2026.1.3,59.9448956503028,2026-05-19 10h28.59.119938 -0700,
,,,,,,,,,,,39,0.025,0.5249999999999999,,,,,230.1495881670271,,,,,,,230.13397837500088,231.13308562501334,0.4750000000000001,0.5249999999999999,231.13661049999064,232.88304741703905,232.8843552499893,234.43381850002334,mostlygreen,green,0,0,0,0,16,"[0.4999999999999999, 0.5249999999999999, 0.4999999999999999, 0.5499999999999999, 0.4999999999999999, 0.5499999999999999, 0.44999999999999984, 0.5499999999999999, 0.47499999999999987, 0.5249999999999999, 0.4999999999999999]",0.5113636363636362,,,,,,,,,,,,,,,,,051926db,001,2026-05-19_10h28.58.807,priming,,2026.1.3,59.9448956503028,2026-05-19 10h28.59.119938 -0700,
,,,,,,,,,,,40,0.025,0.5499999999999999,,,,,234.44956833304605,,,,,,,234.43408787500812,235.4330853749998,0.45000000000000007,0.5499999999999999,235.436639291991,237.183002958016,237.18444933299907,238.01718583301408,mostlyred,red,1,0,1,1,17,"[0.4999999999999999, 0.5249999999999999, 0.4999999999999999, 0.5499999999999999, 0.4999999999999999, 0.5499999999999999, 0.44999999999999984, 0.5499999999999999, 0.47499999999999987, 0.5249999999999999, 0.4999999999999999, 0.5499999999999999]",0.5145833333333332,,,,,,,,,,,,,,,,,051926db,001,2026-05-19_10h28.58.807,priming,,2026.1.3,59.9448956503028,2026-05-19 10h28.59.119938 -0700,
,,,,,,,,,,,41,0.025,0.5249999999999999,,,,,238.03294854203705,,,,,,,238.01749437500257,239.01643650000915,0.4750000000000001,0.5249999999999999,239.01983004203066,240.7665019580163,240.76805204199627,242.8170746670221,mostlygreen,green,0,1,0,1,18,"[0.4999999999999999, 0.5249999999999999, 0.4999999999999999, 0.5499999999999999, 0.4999999999999999, 0.5499999999999999, 0.44999999999999984, 0.5499999999999999, 0.47499999999999987, 0.5249999999999999, 0.4999999999999999, 0.5499999999999999, 0.5249999999999999]",0.5153846153846152,,,,,,,,,,,,,,,,,051926db,001,2026-05-19_10h28.58.807,priming,,2026.1.3,59.9448956503028,2026-05-19 10h28.59.119938 -0700,
,,,,,,,,,,,42,0.025,0.5499999999999999,,,,,242.83306445804192,,,,,,,242.81733012502082,243.81640729203355,0.45000000000000007,0.5499999999999999,243.81992149999132,245.5663419170305,245.56792195799062,249.03371429198887,mostlygreen,green,0,0,0,0,18,"[0.4999999999999999, 0.5249999999999999, 0.4999999999999999, 0.5499999999999999, 0.4999999999999999, 0.5499999999999999, 0.44999999999999984, 0.5499999999999999, 0.47499999999999987, 0.5249999999999999, 0.4999999999999999, 0.5499999999999999, 0.5249999999999999]",0.5153846153846152,,,,,,,,,,,,,,,,,051926db,001,2026-05-19_10h28.58.807,priming,,2026.1.3,59.9448956503028,2026-05-19 10h28.59.119938 -0700,
,,,,,,,,,,,43,0.025,0.575,,,,,249.04957891703816,,,,,,,249.0340113750426,250.03299262502696,0.42500000000000004,0.575,250.03642870800104,251.7831675420166,251.78519537503598,255.60049429204082,mostlyred,red,1,0,1,1,19,"[0.4999999999999999, 0.5249999999999999, 0.4999999999999999, 0.5499999999999999, 0.4999999999999999, 0.5499999999999999, 0.44999999999999984, 0.5499999999999999, 0.47499999999999987, 0.5249999999999999, 0.4999999999999999, 0.5499999999999999, 0.5249999999999999, 0.575]",0.519642857142857,,,,,,,,,,,,,,,,,051926db,001,2026-05-19_10h28.58.807,priming,,2026.1.3,59.9448956503028,2026-05-19 10h28.59.119938 -0700,
,,,,,,,,,,,44,0.025,0.5499999999999999,,,,,255.61640508304117,,,,,,,255.60076579201268,256.59978337504435,0.45000000000000007,0.5499999999999999,256.6033598330105,258.3498529579956,258.3515985830454,260.7005675000255,mostlygreen,green,0,1,0,1,20,"[0.4999999999999999, 0.5249999999999999, 0.4999999999999999, 0.5499999999999999, 0.4999999999999999, 0.5499999999999999, 0.44999999999999984, 0.5499999999999999, 0.47499999999999987, 0.5249999999999999, 0.4999999999999999, 0.5499999999999999, 0.5249999999999999, 0.575, 0.5499999999999999]",0.5216666666666665,,,,,,,,,,,,,,,,,051926db,001,2026-05-19_10h28.58.807,priming,,2026.1.3,59.9448956503028,2026-05-19 10h28.59.119938 -0700,
,,,,,,,,,,,,,,,,,,,,,,space,56.1283082489972,None,,,,,,,,,,,,,,,,,,,,,,,,,,,,,,,,,,051926db,001,2026-05-19_10h28.58.807,priming,,2026.1.3,59.9448956503028,2026-05-19 10h28.59.119938 -0700,
GR_Incongruent_RedCue_GreenProbe_Top,GreenGaborBoth.png,RedGaborBoth.png,GreenGaborDisappearTop.png,RedGaborBoth.png,Red.mp3,red,top,0,0,0,,,,0,0,0,44,316.93319091701414,,,,,,,,,,,,,,,,top,,,,,,,,316.915969958005,318.5169897500309,318.51717504201224,323.7666385000339,323.7756536669913,325.0166196250357,325.01815333298873,328.3007440830115,328.3019783330383,335.40086037502624,mostlygreen,FinalRedContrast,FinalGreenContrast,335.4020373750245,340.217882417026,1,051926db,001,2026-05-19_10h28.58.807,priming,,2026.1.3,59.9448956503028,2026-05-19 10h28.59.119938 -0700,
GR_Congruent_GreenCue_GreenProbe_Top,GreenGaborBoth.png,RedGaborBoth.png,GreenGaborDisappearTop.png,RedGaborBoth.png,Green.mp3,green,top,1,1,0,,,,0,1,1,18,340.233270250028,,,,,,,,,,,,,,,,top,,,,,,,,340.22578870801954,380.65051408304134,380.6506774169975,385.9004927499918,385.9085589580354,387.1502461670316,387.1522022919962,388.7505506669986,388.7524645419908,395.48453962500207,mostlygreen,FinalRedContrast,FinalGreenContrast,395.4852981250151,397.9011094580055,1,051926db,001,2026-05-19_10h28.58.807,priming,,2026.1.3,59.9448956503028,2026-05-19 10h28.59.119938 -0700,
GR_Incongruent_GreenCue_RedProbe_Bottom,GreenGaborBoth.png,RedGaborBoth.png,GreenGaborBoth.png,RedGaborDisappearBottom.png,Green.mp3,green,bottom,2,2,0,,,,0,2,2,7,397.91677662503207,,,,,,,,,,,,,,,,top,,,,,,,,397.90125395799987,399.7841900420026,399.784361292026,405.03368641703855,405.04204720800044,406.2837225830299,406.28520937502617,409.95074908301467,409.952522083011,412.2679610000341,mostlygreen,FinalRedContrast,FinalGreenContrast,412.2686606250354,414.9678316669888,1,051926db,001,2026-05-19_10h28.58.807,priming,,2026.1.3,59.9448956503028,2026-05-19 10h28.59.119938 -0700,
GR_Congruent_RedCue_RedProbe_Bottom,GreenGaborBoth.png,RedGaborBoth.png,GreenGaborBoth.png,RedGaborDisappearBottom.png,Red.mp3,red,bottom,3,3,0,,,,0,3,3,49,414.9835541670327,,,,,,,,,,,,,,,,bottom,,,,,,,,414.9696738750208,416.5840462920023,416.58421333302977,421.833740333037,421.8402046250412,423.08370008302154,423.0853117920342,425.76752720802324,425.7689210420358,427.2844857920427,mostlyred,FinalRedContrast,FinalGreenContrast,427.28581900004065,429.36792187503306,1,051926db,001,2026-05-19_10h28.58.807,priming,,2026.1.3,59.9448956503028,2026-05-19 10h28.59.119938 -0700,
GR_Congruent_RedCue_RedProbe_Top,GreenGaborBoth.png,RedGaborBoth.png,GreenGaborBoth.png,RedGaborDisappearTop.png,Red.mp3,red,top,4,4,0,,,,0,4,4,32,429.38360366702545,,,,,,,,,,,,,,,,top,,,,,,,,429.36806812504074,432.41721745801624,432.4173827920458,437.66709791700123,437.6744231249904,438.9171164580039,438.9183569170418,440.3009573330055,440.30251245800173,442.3847337500192,mostlygreen,FinalRedContrast,FinalGreenContrast,442.3853584580356,444.9179445420159,1,051926db,001,2026-05-19_10h28.58.807,priming,,2026.1.3,59.9448956503028,2026-05-19 10h28.59.119938 -0700,
RR_non_riv_catch_GreenCue_RedProbe_Bottom,Blank.png,RedGaborBoth.png,Blank.png,RedGaborDisappearBottom.png,Green.mp3,green,bottom,5,5,0,,,,0,5,5,75,444.9337287080125,,,,,,,,,,,,,,,,bottom,,,,,,,,444.9198152080062,446.9507730420446,446.95093887503026,452.2005010420107,452.20829766703537,453.4505005420069,453.4523225420271,455.03420420800103,455.03575445798924,456.78469737502746,allred,FinalRedContrast,FinalGreenContrast,456.7855521670426,458.5013059170451,1,051926db,001,2026-05-19_10h28.58.807,priming,,2026.1.3,59.9448956503028,2026-05-19 10h28.59.119938 -0700,
GR_Incongruent_RedCue_GreenProbe_Bottom,GreenGaborBoth.png,RedGaborBoth.png,GreenGaborDisappearBottom.png,RedGaborBoth.png,Red.mp3,red,bottom,6,6,0,,,,0,6,6,13,458.5170716250432,,,,,,,,,,,,,,,,bottom,,,,,,,,458.50310241704574,460.3674441250041,460.36760749999667,465.6172472499893,465.6255444580456,466.86715570802335,466.8687304999912,467.9009690830135,467.902400083025,469.601332582999,mostlygreen,FinalRedContrast,FinalGreenContrast,469.6023941670428,472.58463766699424,1,051926db,001,2026-05-19_10h28.58.807,priming,,2026.1.3,59.9448956503028,2026-05-19 10h28.59.119938 -0700,
GR_Congruent_RedCue_RedProbe_Top,GreenGaborBoth.png,RedGaborBoth.png,GreenGaborBoth.png,RedGaborDisappearTop.png,Red.mp3,red,top,7,7,0,,,,0,7,7,40,472.6003822920029,,,,,,,,,,,,,,,,top,,,,,,,,472.5847842080402,475.18455495801754,475.1847379170358,480.4338991250261,480.4408531670342,481.6839966670377,481.6853858749964,482.85101533302804,482.85270629200386,484.11812379199546,mostlygreen,FinalRedContrast,FinalGreenContrast,484.1192589580314,485.3681708330405,1,051926db,001,2026-05-19_10h28.58.807,priming,,2026.1.3,59.9448956503028,2026-05-19 10h28.59.119938 -0700,
GR_Incongruent_RedCue_GreenProbe_Bottom,GreenGaborBoth.png,RedGaborBoth.png,GreenGaborDisappearBottom.png,RedGaborBoth.png,Red.mp3,red,bottom,8,8,0,,,,0,8,8,21,485.3838485000306,,,,,,,,,,,,,,,,bottom,,,,,,,,485.3682723750244,487.1679188749986,487.16809291701065,492.41726658301195,492.4237351670163,493.6672842919943,493.6686161250109,494.80106745800003,494.8024900419987,496.13478679204127,mostlygreen,FinalRedContrast,FinalGreenContrast,496.13587479200214,497.30158354202285,1,051926db,001,2026-05-19_10h28.58.807,priming,,2026.1.3,59.9448956503028,2026-05-19 10h28.59.119938 -0700,
GG_non_riv_catch_RedCue_GreenProbe_Top,GreenGaborBoth.png,Blank.png,GreenGaborDisappearTop.png,Blank.png,Red.mp3,red,top,9,9,0,,,,0,9,9,76,497.3172777920263,,,,,,,,,,,,,,,,top,,,,,,,,497.30167983303545,499.034288667026,499.034462917014,504.28396166703897,504.2904132080148,505.5339027500013,505.5357315420406,506.3177295420319,506.31930437503615,507.4015925830463,allgreen,FinalRedContrast,FinalGreenContrast,507.4024668330094,508.8515920420177,1,051926db,001,2026-05-19_10h28.58.807,priming,,2026.1.3,59.9448956503028,2026-05-19 10h28.59.119938 -0700,
GR_Congruent_GreenCue_GreenProbe_Top,GreenGaborBoth.png,RedGaborBoth.png,GreenGaborDisappearTop.png,RedGaborBoth.png,Green.mp3,green,top,10,10,0,,,,0,10,10,2,508.86744929203996,,,,,,,,,,,,,,,,top,,,,,,,,508.8535310830339,513.9510187080014,513.9511866249959,519.2007607500418,519.2071817920078,520.4506543329917,520.4521528329933,521.5677792080096,521.5695001670392,522.5686283330433,mostlygreen,FinalRedContrast,FinalGreenContrast,522.5690865420038,523.9348809579969,1,051926db,001,2026-05-19_10h28.58.807,priming,,2026.1.3,59.9448956503028,2026-05-19 10h28.59.119938 -0700,
GR_Congruent_RedCue_RedProbe_Top,GreenGaborBoth.png,RedGaborBoth.png,GreenGaborBoth.png,RedGaborDisappearTop.png,Red.mp3,red,top,11,11,0,,,,0,11,11,16,523.9506009580218,,,,,,,,,,,,,,,,top,,,,,,,,523.9365387079888,525.3680428329972,525.3682233330328,530.6174406670034,530.6237499170238,531.8674032080453,531.8691042080172,532.9511006670073,532.9529651670018,534.5182744580088,mostlygreen,FinalRedContrast,FinalGreenContrast,534.5193975830334,535.6015866670059,1,051926db,001,2026-05-19_10h28.58.807,priming,,2026.1.3,59.9448956503028,2026-05-19 10h28.59.119938 -0700,
GR_Incongruent_GreenCue_RedProbe_Bottom,GreenGaborBoth.png,RedGaborBoth.png,GreenGaborBoth.png,RedGaborDisappearBottom.png,Green.mp3,green,bottom,12,12,0,,,,0,12,12,15,535.6173486670014,,,,,,,,,,,,,,,,bottom,,,,,,,,535.6033803750179,536.9012802499929,536.9014575420297,542.1508497920004,542.1573289170046,543.4009076670045,543.4023810829967,545.0012884170283,545.0021082920139,547.235092042014,mostlygreen,FinalRedContrast,FinalGreenContrast,547.2357059170026,548.1687891249894,1,051926db,001,2026-05-19_10h28.58.807,priming,,2026.1.3,59.9448956503028,2026-05-19 10h28.59.119938 -0700,
GR_Incongruent_RedCue_GreenProbe_Top,GreenGaborBoth.png,RedGaborBoth.png,GreenGaborDisappearTop.png,RedGaborBoth.png,Red.mp3,red,top,13,13,0,,,,0,13,13,36,548.1841064170003,,,,,,,,,,,,,,,,top,,,,,,,,548.1703283750103,549.9011416670401,549.9013107499923,555.1508051670389,555.1572360830032,556.400850917038,556.4021762500051,557.2513188750017,557.2525546670076,558.3182183750323,mostlygreen,FinalRedContrast,FinalGreenContrast,558.319316667039,559.351727500034,1,051926db,001,2026-05-19_10h28.58.807,priming,,2026.1.3,59.9448956503028,2026-05-19 10h28.59.119938 -0700,
RR_non_riv_catch_RedCue_RedProbe_Top,Blank.png,RedGaborBoth.png,Blank.png,RedGaborDisappearTop.png,Red.mp3,red,top,14,14,0,,,,0,14,14,72,559.3674228750169,,,,,,,,,,,,,,,,top,,,,,,,,559.3518728750059,566.7011651250068,566.7013301670086,571.9508027920383,571.9564053750364,573.2010395830148,573.2026506669936,574.4846677920432,574.4864277080051,575.568461042014,allred,FinalRedContrast,FinalGreenContrast,575.5695795000065,576.7185258330428,1,051926db,001,2026-05-19_10h28.58.807,priming,,2026.1.3,59.9448956503028,2026-05-19 10h28.59.119938 -0700,
GG_non_riv_catch_GreenCue_GreenProbe_Bottom,GreenGaborBoth.png,Blank.png,GreenGaborDisappearBottom.png,Blank.png,Green.mp3,green,bottom,15,15,0,,,,0,15,15,79,576.7342672499944,,,,,,,,,,,,,,,,bottom,,,,,,,,576.7203935420257,580.7012522500008,580.701411749993,585.9510382920271,585.9565747500164,587.2010447080247,587.2025956670404,587.88466887502,587.885916542029,588.951850500016,allgreen,FinalRedContrast,FinalGreenContrast,588.9529747500201,589.9518436670187,1,051926db,001,2026-05-19_10h28.58.807,priming,,2026.1.3,59.9448956503028,2026-05-19 10h28.59.119938 -0700,
GR_Incongruent_GreenCue_RedProbe_Top,GreenGaborBoth.png,RedGaborBoth.png,GreenGaborBoth.png,RedGaborDisappearTop.png,Green.mp3,green,top,16,16,0,,,,0,16,16,38,589.9676491669961,,,,,,,,,,,,,,,,top,,,,,,,,589.9519412920345,592.0013383750338,592.0015032500378,597.2509394169901,597.257463957998,598.5009570000111,598.5032592500211,599.4347212500288,599.4360120830243,601.4851667920011,evensplit,FinalRedContrast,FinalGreenContrast,601.4864747920074,602.7851598749985,1,051926db,001,2026-05-19_10h28.58.807,priming,,2026.1.3,59.9448956503028,2026-05-19 10h28.59.119938 -0700,
GR_Congruent_GreenCue_GreenProbe_Top,GreenGaborBoth.png,RedGaborBoth.png,GreenGaborDisappearTop.png,RedGaborBoth.png,Green.mp3,green,top,17,17,0,,,,0,17,17,50,602.8009950830019,,,,,,,,,,,,,,,,top,,,,,,,,602.7852557500009,604.8847734580049,604.8849363750196,610.1344367080019,610.1408069170429,611.3844839170342,611.3859161250293,612.0682220000308,612.0696158750216,613.2852572080446,mostlygreen,FinalRedContrast,FinalGreenContrast,613.2864117500139,614.4519862920279,1,051926db,001,2026-05-19_10h28.58.807,priming,,2026.1.3,59.9448956503028,2026-05-19 10h28.59.119938 -0700,
GR_Congruent_GreenCue_GreenProbe_Bottom,GreenGaborBoth.png,RedGaborBoth.png,GreenGaborDisappearBottom.png,RedGaborBoth.png,Green.mp3,green,bottom,18,18,0,,,,0,18,18,51,614.4676838330342,,,,,,,,,,,,,,,,bottom,,,,,,,,614.4520908330451,615.7347205000115,615.7348819579929,620.9843482919969,620.9909524170216,622.2345418329933,622.235792958003,623.3682274580351,623.3697846670402,624.9686249580118,mostlygreen,FinalRedContrast,FinalGreenContrast,624.9697610420408,626.7519614580087,1,051926db,001,2026-05-19_10h28.58.807,priming,,2026.1.3,59.9448956503028,2026-05-19 10h28.59.119938 -0700,
GR_Incongruent_GreenCue_RedProbe_Top,GreenGaborBoth.png,RedGaborBoth.png,GreenGaborBoth.png,RedGaborDisappearTop.png,Green.mp3,green,top,19,19,0,,,,0,19,19,6,626.7678360830178,,,,,,,,,,,,,,,,top,,,,,,,,626.7520568330074,632.0848498750129,632.0850129580358,637.3345459169941,637.3409983330057,638.5846184170223,638.5863641670439,639.8850602500024,639.8867081670323,641.2854267919902,mostlyred,FinalRedContrast,FinalGreenContrast,641.286673124996,642.8354460830451,1,051926db,001,2026-05-19_10h28.58.807,priming,,2026.1.3,59.9448956503028,2026-05-19 10h28.59.119938 -0700,
GR_Incongruent_GreenCue_RedProbe_Bottom,GreenGaborBoth.png,RedGaborBoth.png,GreenGaborBoth.png,RedGaborDisappearBottom.png,Green.mp3,green,bottom,20,20,0,,,,0,20,20,47,642.851194332994,,,,,,,,,,,,,,,,bottom,,,,,,,,642.8355430000229,646.7181794170174,646.7183434999897,651.9678845829912,651.974357708008,653.217967042001,653.2194939579931,654.1016554580419,654.1032022919971,655.1519658330362,mostlyred,FinalRedContrast,FinalGreenContrast,655.1532381669967,660.5854594580014,1,051926db,001,2026-05-19_10h28.58.807,priming,,2026.1.3,59.9448956503028,2026-05-19 10h28.59.119938 -0700,
GR_Congruent_GreenCue_GreenProbe_Top,GreenGaborBoth.png,RedGaborBoth.png,GreenGaborDisappearTop.png,RedGaborBoth.png,Green.mp3,green,top,21,21,0,,,,0,21,21,10,660.6011402920121,,,,,,,,,,,,,,,,top,,,,,,,,660.585556917009,664.3349605420372,664.3351268750266,669.5846334170201,669.5909713330329,670.8347290420206,670.8364895830164,674.1851101670181,674.1866528330138,675.3022192500066,evensplit,FinalRedContrast,FinalGreenContrast,675.3029248330276,676.3691964580212,1,051926db,001,2026-05-19_10h28.58.807,priming,,2026.1.3,59.9448956503028,2026-05-19 10h28.59.119938 -0700,
GR_Congruent_RedCue_RedProbe_Bottom,GreenGaborBoth.png,RedGaborBoth.png,GreenGaborBoth.png,RedGaborDisappearBottom.png,Red.mp3,red,bottom,22,22,0,,,,0,22,22,33,676.3845966670197,,,,,,,,,,,,,,,,bottom,,,,,,,,676.3708825830254,678.5850748750381,678.5852502080379,683.8346857920405,683.8425024170429,685.0848430420156,685.0860962920124,686.0684684580192,686.0695685830433,687.5188418329926,mostlyred,FinalRedContrast,FinalGreenContrast,687.5201406670385,688.8355814170209,1,051926db,001,2026-05-19_10h28.58.807,priming,,2026.1.3,59.9448956503028,2026-05-19 10h28.59.119938 -0700,
GR_Congruent_RedCue_RedProbe_Bottom,GreenGaborBoth.png,RedGaborBoth.png,GreenGaborBoth.png,RedGaborDisappearBottom.png,Red.mp3,red,bottom,23,23,0,,,,0,23,23,17,688.8513254999998,,,,,,,,,,,,,,,,bottom,,,,,,,,688.8356788750389,694.4350270000286,694.4351911669946,699.6848071250133,699.6911413330236,700.9347357919905,700.9365468749893,701.7685020419885,701.7701869170414,702.8188427500427,mostlyred,FinalRedContrast,FinalGreenContrast,702.8199750829954,704.269015833037,1,051926db,001,2026-05-19_10h28.58.807,priming,,2026.1.3,59.9448956503028,2026-05-19 10h28.59.119938 -0700,
GR_Incongruent_GreenCue_RedProbe_Bottom,GreenGaborBoth.png,RedGaborBoth.png,GreenGaborBoth.png,RedGaborDisappearBottom.png,Green.mp3,green,bottom,24,24,0,,,,0,24,24,23,704.2847760830191,,,,,,,,,,,,,,,,bottom,,,,,,,,704.2708562500193,706.5017828330165,706.5019431250403,711.7512239580392,711.7577557920013,713.001572292007,713.0029606250464,713.6852578750113,713.6863235000055,715.0691302920459,mostlyred,FinalRedContrast,FinalGreenContrast,715.0697347919922,716.5023472500034,1,051926db,001,2026-05-19_10h28.58.807,priming,,2026.1.3,59.9448956503028,2026-05-19 10h28.59.119938 -0700,
GR_Congruent_GreenCue_GreenProbe_Bottom,GreenGaborBoth.png,RedGaborBoth.png,GreenGaborDisappearBottom.png,RedGaborBoth.png,Green.mp3,green,bottom,25,25,0,,,,0,25,25,3,716.5181125830277,,,,,,,,,,,,,,,,bottom,,,,,,,,716.502454792033,719.3350007080007,719.335159750015,724.5848664169898,724.5919461669982,725.8347562080016,725.8365768750082,727.368569250044,727.3701569170225,729.5690925419913,mostlyred,FinalRedContrast,FinalGreenContrast,729.5694310420076,731.0523636250291,1,051926db,001,2026-05-19_10h28.58.807,priming,,2026.1.3,59.9448956503028,2026-05-19 10h28.59.119938 -0700,
GG_non_riv_catch_RedCue_GreenProbe_Bottom,GreenGaborBoth.png,Blank.png,GreenGaborDisappearBottom.png,Blank.png,Red.mp3,red,bottom,26,26,0,,,,0,26,26,77,731.0680222919909,,,,,,,,,,,,,,,,bottom,,,,,,,,731.0540218750248,733.5851389170275,733.5853014170425,738.834983125038,738.8412922080024,740.0849729580223,740.0868658330292,742.0020738330204,742.0037120000343,743.7357525420375,allgreen,FinalRedContrast,FinalGreenContrast,743.7369610420428,744.7358075419907,1,051926db,001,2026-05-19_10h28.58.807,priming,,2026.1.3,59.9448956503028,2026-05-19 10h28.59.119938 -0700,
GR_Incongruent_RedCue_GreenProbe_Bottom,GreenGaborBoth.png,RedGaborBoth.png,GreenGaborDisappearBottom.png,RedGaborBoth.png,Red.mp3,red,bottom,27,27,0,,,,0,27,27,45,744.7515487080091,,,,,,,,,,,,,,,,bottom,,,,,,,,744.7359060000163,748.0853082080139,748.0854732920416,753.3350052500027,753.3414520830265,754.584917750035,754.5869487920427,755.8354112080415,755.8372256670264,756.735812333005,evensplit,FinalRedContrast,FinalGreenContrast,756.7367841670057,758.3191566250171,1,051926db,001,2026-05-19_10h28.58.807,priming,,2026.1.3,59.9448956503028,2026-05-19 10h28.59.119938 -0700,
GR_Incongruent_RedCue_GreenProbe_Bottom,GreenGaborBoth.png,RedGaborBoth.png,GreenGaborDisappearBottom.png,RedGaborBoth.png,Red.mp3,red,bottom,28,28,0,,,,0,28,28,29,758.3349081249908,,,,,,,,,,,,,,,,bottom,,,,,,,,758.3192538750009,759.8186123330379,759.8187743750168,765.0682128749904,765.07466891699,766.3182572500082,766.3198748750146,767.1520512500429,767.1537659580354,769.4692432500306,mostlygreen,FinalRedContrast,FinalGreenContrast,769.4704040419892,771.7192222080193,1,051926db,001,2026-05-19_10h28.58.807,priming,,2026.1.3,59.9448956503028,2026-05-19 10h28.59.119938 -0700,
GR_Congruent_RedCue_RedProbe_Bottom,GreenGaborBoth.png,RedGaborBoth.png,GreenGaborBoth.png,RedGaborDisappearBottom.png,Red.mp3,red,bottom,29,29,0,,,,0,29,29,65,771.7349969579955,,,,,,,,,,,,,,,,bottom,,,,,,,,771.7193178750458,774.2187072919914,774.2188697920064,779.4683901250246,779.4763295000303,780.7184212920256,780.7200299170217,782.2188367079943,782.2201829170226,783.8358723330311,mostlyred,FinalRedContrast,FinalGreenContrast,783.8372037080117,785.485913792043,1,051926db,001,2026-05-19_10h28.58.807,priming,,2026.1.3,59.9448956503028,2026-05-19 10h28.59.119938 -0700,
GR_Incongruent_GreenCue_RedProbe_Bottom,GreenGaborBoth.png,RedGaborBoth.png,GreenGaborBoth.png,RedGaborDisappearBottom.png,Green.mp3,green,bottom,30,30,0,,,,0,30,30,63,785.5015775830252,,,,,,,,,,,,,,,,bottom,,,,,,,,785.4878324579913,787.2019792920328,787.2021433330374,792.4517115000053,792.4597843330121,793.70171045803,793.7035730000352,794.6854676250368,794.6872619170463,798.1858557920204,allred,FinalRedContrast,FinalGreenContrast,798.1870307500358,800.4692240000004,1,051926db,001,2026-05-19_10h28.58.807,priming,,2026.1.3,59.9448956503028,2026-05-19 10h28.59.119938 -0700,
GR_Incongruent_GreenCue_RedProbe_Bottom,GreenGaborBoth.png,RedGaborBoth.png,GreenGaborBoth.png,RedGaborDisappearBottom.png,Green.mp3,green,bottom,31,31,0,,,,0,31,31,71,800.484951624996,,,,,,,,,,,,,,,,bottom,,,,,,,,800.469392375031,802.0521003330359,802.0522659580456,807.3017833750346,807.3093019580119,808.5518087919918,808.5535982500296,809.4022427080199,809.4032052080147,810.7693408750347,mostlyred,FinalRedContrast,FinalGreenContrast,810.7706834170385,811.8859665830387,1,051926db,001,2026-05-19_10h28.58.807,priming,,2026.1.3,59.9448956503028,2026-05-19 10h28.59.119938 -0700,
GG_non_riv_catch_GreenCue_GreenProbe_Top,GreenGaborBoth.png,Blank.png,GreenGaborDisappearTop.png,Blank.png,Green.mp3,green,top,32,32,0,,,,0,32,32,78,811.901767250034,,,,,,,,,,,,,,,,top,,,,,,,,811.8860802500276,814.5525012080325,814.5526823750115,819.8018556250026,819.8086662500282,821.0518738329993,821.0536856250255,824.0856612080242,824.0873257500352,825.7361766670365,allgreen,FinalRedContrast,FinalGreenContrast,825.7373027080321,827.3694463749998,1,051926db,001,2026-05-19_10h28.58.807,priming,,2026.1.3,59.9448956503028,2026-05-19 10h28.59.119938 -0700,
GR_Congruent_RedCue_RedProbe_Bottom,GreenGaborBoth.png,RedGaborBoth.png,GreenGaborBoth.png,RedGaborDisappearBottom.png,Red.mp3,red,bottom,33,33,0,,,,0,33,33,1,827.3851768750465,,,,,,,,,,,,,,,,bottom,,,,,,,,827.3711655419902,828.7856634170166,828.785827499989,834.0352849999908,834.0432237919886,835.2853585830308,835.2868535830057,837.8524148330325,837.8539924580255,839.436235250032,mostlygreen,FinalRedContrast,FinalGreenContrast,839.4368198330048,840.8528435000335,1,051926db,001,2026-05-19_10h28.58.807,priming,,2026.1.3,59.9448956503028,2026-05-19 10h28.59.119938 -0700,
GR_Congruent_GreenCue_GreenProbe_Bottom,GreenGaborBoth.png,RedGaborBoth.png,GreenGaborDisappearBottom.png,RedGaborBoth.png,Green.mp3,green,bottom,34,34,0,,,,0,34,34,19,840.8686612920137,,,,,,,,,,,,,,,,bottom,,,,,,,,840.8547210420365,844.5190628750133,844.5192250420223,849.7686292920262,849.7761747500044,851.018685957999,851.0203489999985,852.3525035830098,852.3534853750025,854.3199317500112,mostlygreen,FinalRedContrast,FinalGreenContrast,854.3204742080416,856.0362864580238,1,051926db,001,2026-05-19_10h28.58.807,priming,,2026.1.3,59.9448956503028,2026-05-19 10h28.59.119938 -0700,
GR_Incongruent_GreenCue_RedProbe_Bottom,GreenGaborBoth.png,RedGaborBoth.png,GreenGaborBoth.png,RedGaborDisappearBottom.png,Green.mp3,green,bottom,35,35,0,,,,0,35,35,39,856.0519677920383,,,,,,,,,,,,,,,,bottom,,,,,,,,856.0364128749934,860.6102970420034,860.6104664170416,865.8519744580262,865.8585362079903,867.1019910420291,867.1039217080106,871.9192757920246,871.9207589169964,873.9199838750064,mostlygreen,FinalRedContrast,FinalGreenContrast,873.9207364580361,874.6363427080214,1,051926db,001,2026-05-19_10h28.58.807,priming,,2026.1.3,59.9448956503028,2026-05-19 10h28.59.119938 -0700,
GR_Incongruent_GreenCue_RedProbe_Top,GreenGaborBoth.png,RedGaborBoth.png,GreenGaborBoth.png,RedGaborDisappearTop.png,Green.mp3,green,top,36,36,0,,,,0,36,36,62,874.652111500036,,,,,,,,,,,,,,,,top,,,,,,,,874.6364604580449,876.5357096249936,876.53587349999,881.7854743750067,881.7930151670007,883.0355199580081,883.0368202920072,885.6025623750174,885.6044306250405,887.1029979580198,mostlyred,FinalRedContrast,FinalGreenContrast,887.1042214170448,888.136338707991,1,051926db,001,2026-05-19_10h28.58.807,priming,,2026.1.3,59.9448956503028,2026-05-19 10h28.59.119938 -0700,
GR_Congruent_GreenCue_GreenProbe_Top,GreenGaborBoth.png,RedGaborBoth.png,GreenGaborDisappearTop.png,RedGaborBoth.png,Green.mp3,green,top,37,37,0,,,,0,37,37,34,888.1519824580173,,,,,,,,,,,,,,,,top,,,,,,,,888.1364369580406,890.3191337920143,890.3192977920407,895.5688029580051,895.57520320802,896.8187385420315,896.8202586250263,898.469241874991,898.4710342920152,899.2696038330323,mostlygreen,FinalRedContrast,FinalGreenContrast,899.2710269170348,900.019642625004,1,051926db,001,2026-05-19_10h28.58.807,priming,,2026.1.3,59.9448956503028,2026-05-19 10h28.59.119938 -0700,
GR_Incongruent_GreenCue_RedProbe_Top,GreenGaborBoth.png,RedGaborBoth.png,GreenGaborBoth.png,RedGaborDisappearTop.png,Green.mp3,green,top,38,38,0,,,,0,38,38,30,900.0354317920282,,,,,,,,,,,,,,,,top,,,,,,,,900.01978791703,902.2526433329913,902.2528061670018,907.5023115830263,907.5088265000377,908.7522625830024,908.7544380000327,910.2527296250337,910.2542815830093,923.6031992500066,mostlyred,FinalRedContrast,FinalGreenContrast,923.6038491670042,926.4863777080318,1,051926db,001,2026-05-19_10h28.58.807,priming,,2026.1.3,59.9448956503028,2026-05-19 10h28.59.119938 -0700,
GR_Incongruent_RedCue_GreenProbe_Top,GreenGaborBoth.png,RedGaborBoth.png,GreenGaborDisappearTop.png,RedGaborBoth.png,Red.mp3,red,top,39,39,0,,,,0,39,39,52,926.5021908750059,,,,,,,,,,,,,,,,top,,,,,,,,926.4880557500292,931.5196860000142,931.5198835830088,936.7690265830024,936.7754258330096,938.019052083022,938.0208090830129,940.9194699170184,940.9210414169938,942.9031950830249,mostlygreen,FinalRedContrast,FinalGreenContrast,942.9043863750412,944.9865178749897,1,051926db,001,2026-05-19_10h28.58.807,priming,,2026.1.3,59.9448956503028,2026-05-19 10h28.59.119938 -0700,
GR_Incongruent_RedCue_GreenProbe_Bottom,GreenGaborBoth.png,RedGaborBoth.png,GreenGaborDisappearBottom.png,RedGaborBoth.png,Red.mp3,red,bottom,40,40,0,,,,0,40,40,69,945.002338958031,,,,,,,,,,,,,,,,bottom,,,,,,,,944.9866149169975,947.8527538750204,947.8529136670404,953.1023598330212,953.1087904580054,954.3523935830453,954.3540441250079,955.6861752500408,955.6878388749901,957.9034117080155,evensplit,FinalRedContrast,FinalGreenContrast,957.9045679999981,959.6031941670226,1,051926db,001,2026-05-19_10h28.58.807,priming,,2026.1.3,59.9448956503028,2026-05-19 10h28.59.119938 -0700,
GR_Congruent_RedCue_RedProbe_Bottom,GreenGaborBoth.png,RedGaborBoth.png,GreenGaborBoth.png,RedGaborDisappearBottom.png,Red.mp3,red,bottom,41,41,0,,,,0,41,41,41,959.6190284580225,,,,,,,,,,,,,,,,bottom,,,,,,,,959.603287875012,961.9193929170142,961.9195586669957,967.1690902080154,967.1754585829913,968.4192106249975,968.4206284169923,969.2196187500376,969.221301832993,970.6034254170372,mostlyred,FinalRedContrast,FinalGreenContrast,970.6039466669899,972.0700394170126,1,051926db,001,2026-05-19_10h28.58.807,priming,,2026.1.3,59.9448956503028,2026-05-19 10h28.59.119938 -0700,
GR_Incongruent_GreenCue_RedProbe_Top,GreenGaborBoth.png,RedGaborBoth.png,GreenGaborBoth.png,RedGaborDisappearTop.png,Green.mp3,green,top,42,42,0,,,,0,42,42,22,972.0857647079974,,,,,,,,,,,,,,,,top,,,,,,,,972.071829417022,981.6361792500247,981.6363398330286,986.8858075420139,986.8921027920442,988.1358527920092,988.137441208004,989.0029969169991,989.0041707920027,990.1534863749985,mostlygreen,FinalRedContrast,FinalGreenContrast,990.1542477080366,992.13669462502,1,051926db,001,2026-05-19_10h28.58.807,priming,,2026.1.3,59.9448956503028,2026-05-19 10h28.59.119938 -0700,
GR_Congruent_GreenCue_GreenProbe_Bottom,GreenGaborBoth.png,RedGaborBoth.png,GreenGaborDisappearBottom.png,RedGaborBoth.png,Green.mp3,green,bottom,43,43,0,,,,0,43,43,35,992.1523466249928,,,,,,,,,,,,,,,,bottom,,,,,,,,992.136791750032,997.3861316250404,997.3862966250163,1002.6360037500272,1002.6424145830097,1003.885979417013,1003.8873533330043,1004.6530919999932,1004.6547921250458,1006.5201828330173,mostlygreen,FinalRedContrast,FinalGreenContrast,1006.5212757920381,1007.8368346249918,1,051926db,001,2026-05-19_10h28.58.807,priming,,2026.1.3,59.9448956503028,2026-05-19 10h28.59.119938 -0700,
GR_Congruent_GreenCue_GreenProbe_Bottom,GreenGaborBoth.png,RedGaborBoth.png,GreenGaborDisappearBottom.png,RedGaborBoth.png,Green.mp3,green,bottom,44,44,0,,,,0,44,44,59,1007.8526382080163,,,,,,,,,,,,,,,,bottom,,,,,,,,1007.8369299580227,1014.6529768750188,1014.6531407500152,1019.9027753330301,1019.9091345420456,1021.1527256250265,1021.1543198750005,1022.5864124170039,1022.5881135830423,1024.0201843330287,mostlygreen,FinalRedContrast,FinalGreenContrast,1024.020881208009,1025.3535432920326,1,051926db,001,2026-05-19_10h28.58.807,priming,,2026.1.3,59.9448956503028,2026-05-19 10h28.59.119938 -0700,
RR_non_riv_catch_RedCue_RedProbe_Bottom,Blank.png,RedGaborBoth.png,Blank.png,RedGaborDisappearBottom.png,Red.mp3,red,bottom,45,45,0,,,,0,45,45,73,1025.3693187080207,,,,,,,,,,,,,,,,bottom,,,,,,,,1025.355119874992,1029.786285708018,1029.7864493750385,1035.0361340829986,1035.0414910420077,1036.2861642080243,1036.2874643750256,1038.0699304169975,1038.0711116250022,1039.8133553329972,allred,FinalRedContrast,FinalGreenContrast,1039.8136495830258,1041.1036932500429,1,051926db,001,2026-05-19_10h28.58.807,priming,,2026.1.3,59.9448956503028,2026-05-19 10h28.59.119938 -0700,
GR_Congruent_RedCue_RedProbe_Top,GreenGaborBoth.png,RedGaborBoth.png,GreenGaborBoth.png,RedGaborDisappearTop.png,Red.mp3,red,top,46,46,0,,,,0,46,46,8,1041.1194372920436,,,,,,,,,,,,,,,,top,,,,,,,,1041.1037960420363,1045.7698218330042,1045.769988792017,1051.019418208045,1051.0257361250115,1052.2694665000308,1052.2710300830076,1053.0533721669926,1053.0547691250104,1055.6535919170128,mostlygreen,FinalRedContrast,FinalGreenContrast,1055.6547707500285,1056.7703658750397,1,051926db,001,2026-05-19_10h28.58.807,priming,,2026.1.3,59.9448956503028,2026-05-19 10h28.59.119938 -0700,
RR_non_riv_catch_GreenCue_RedProbe_Top,Blank.png,RedGaborBoth.png,Blank.png,RedGaborDisappearTop.png,Green.mp3,green,top,47,47,0,,,,0,47,47,74,1056.7861162920017,,,,,,,,,,,,,,,,top,,,,,,,,1056.7722607920296,1060.4364578330424,1060.4366190000437,1065.6861037079943,1065.6915317500243,1066.9362432080088,1066.9382254169905,1067.7366252919892,1067.7373470000457,1069.8204613330308,allred,FinalRedContrast,FinalGreenContrast,1069.8211153330049,1071.6537562500453,1,051926db,001,2026-05-19_10h28.58.807,priming,,2026.1.3,59.9448956503028,2026-05-19 10h28.59.119938 -0700,
GR_Incongruent_RedCue_GreenProbe_Top,GreenGaborBoth.png,RedGaborBoth.png,GreenGaborDisappearTop.png,RedGaborBoth.png,Red.mp3,red,top,48,48,0,,,,0,48,48,20,1071.66956316703,,,,,,,,,,,,,,,,top,,,,,,,,1071.6554130419972,1078.8032616249984,1078.8034265000024,1084.0529094579979,1084.059226167039,1085.3030173750012,1085.3046965420363,1086.4200248330017,1086.421478125034,1087.5704197920277,mostlyred,FinalRedContrast,FinalGreenContrast,1087.5714820420253,1088.737166167004,1,051926db,001,2026-05-19_10h28.58.807,priming,,2026.1.3,59.9448956503028,2026-05-19 10h28.59.119938 -0700,
GR_Incongruent_GreenCue_RedProbe_Top,GreenGaborBoth.png,RedGaborBoth.png,GreenGaborBoth.png,RedGaborDisappearTop.png,Green.mp3,green,top,49,49,0,,,,0,49,49,14,1088.7530090420041,,,,,,,,,,,,,,,,top,,,,,,,,1088.7391355000436,1093.5698531250237,1093.5700187500333,1098.8197322080377,1098.826075375022,1100.069631833001,1100.07137470803,1101.5038769580424,1101.5045870830072,1103.4205499170348,mostlyred,FinalRedContrast,FinalGreenContrast,1103.421768166998,1105.1538982920465,1,051926db,001,2026-05-19_10h28.58.807,priming,,2026.1.3,59.9448956503028,2026-05-19 10h28.59.119938 -0700,
GR_Congruent_GreenCue_GreenProbe_Top,GreenGaborBoth.png,RedGaborBoth.png,GreenGaborDisappearTop.png,RedGaborBoth.png,Green.mp3,green,top,50,50,0,,,,0,50,50,66,1105.1697249170393,,,,,,,,,,,,,,,,top,,,,,,,,1105.1539951669984,1107.9032975000446,1107.903463124996,1113.15307054203,1113.1594029170228,1114.4031677080202,1114.4045265000314,1115.8869329580339,1115.8885578330373,1119.8876182920067,mostlyred,FinalRedContrast,FinalGreenContrast,1119.8881519170245,1122.087258582993,1,051926db,001,2026-05-19_10h28.58.807,priming,,2026.1.3,59.9448956503028,2026-05-19 10h28.59.119938 -0700,
GR_Incongruent_RedCue_GreenProbe_Bottom,GreenGaborBoth.png,RedGaborBoth.png,GreenGaborDisappearBottom.png,RedGaborBoth.png,Red.mp3,red,bottom,51,51,0,,,,0,51,51,37,1122.1029310830054,,,,,,,,,,,,,,,,bottom,,,,,,,,1122.0888976250426,1124.353494000039,1124.3536644169944,1129.6030881670304,1129.609433708014,1130.8531305420329,1130.8550946250325,1131.9368665420334,1131.938461542013,1133.1539204579894,mostlygreen,FinalRedContrast,FinalGreenContrast,1133.1550897920388,1134.687391332991,1,051926db,001,2026-05-19_10h28.58.807,priming,,2026.1.3,59.9448956503028,2026-05-19 10h28.59.119938 -0700,
GR_Incongruent_RedCue_GreenProbe_Bottom,GreenGaborBoth.png,RedGaborBoth.png,GreenGaborDisappearBottom.png,RedGaborBoth.png,Red.mp3,red,bottom,52,52,0,,,,0,52,52,53,1134.7031101250323,,,,,,,,,,,,,,,,bottom,,,,,,,,1134.6875129580148,1137.2368739169906,1137.2370371670113,1142.486534833035,1142.492938792042,1143.7365622500074,1143.737857833039,1144.8535823750426,1144.8551116250455,1146.187366417027,mostlygreen,FinalRedContrast,FinalGreenContrast,1146.1880039169919,1148.8040559579968,1,051926db,001,2026-05-19_10h28.58.807,priming,,2026.1.3,59.9448956503028,2026-05-19 10h28.59.119938 -0700,
GR_Congruent_GreenCue_GreenProbe_Top,GreenGaborBoth.png,RedGaborBoth.png,GreenGaborDisappearTop.png,RedGaborBoth.png,Green.mp3,green,top,53,53,0,,,,0,53,53,26,1148.8198150420212,,,,,,,,,,,,,,,,top,,,,,,,,1148.8058623330435,1151.6369037500117,1151.6370656249928,1156.8864732080256,1156.8927867080201,1158.1364605420385,1158.138437125017,1158.920431708044,1158.9212504579918,1160.5872884170385,mostlygreen,FinalRedContrast,FinalGreenContrast,1160.5880546669941,1162.070639625017,1,051926db,001,2026-05-19_10h28.58.807,priming,,2026.1.3,59.9448956503028,2026-05-19 10h28.59.119938 -0700,
GR_Congruent_RedCue_RedProbe_Top,GreenGaborBoth.png,RedGaborBoth.png,GreenGaborBoth.png,RedGaborDisappearTop.png,Red.mp3,red,top,54,54,0,,,,0,54,54,48,1162.0865151670296,,,,,,,,,,,,,,,,top,,,,,,,,1162.0722780420328,1163.7867445000447,1163.7869091249886,1169.0366431250004,1169.0429845830076,1170.2866575830267,1170.2887465830427,1171.070392624999,1171.0720410420327,1172.6375858749961,mostlygreen,FinalRedContrast,FinalGreenContrast,1172.6387099580024,1174.5208507500356,1,051926db,001,2026-05-19_10h28.58.807,priming,,2026.1.3,59.9448956503028,2026-05-19 10h28.59.119938 -0700,
GR_Incongruent_RedCue_GreenProbe_Top,GreenGaborBoth.png,RedGaborBoth.png,GreenGaborDisappearTop.png,RedGaborBoth.png,Red.mp3,red,top,55,55,0,,,,0,55,55,12,1174.536537708016,,,,,,,,,,,,,,,,top,,,,,,,,1174.5209716249956,1176.9036554170307,1176.9038189580315,1182.1533709579962,1182.1599415829987,1183.4033336249995,1183.4050071670208,1184.4370571670006,1184.4388285420137,1185.9875050419942,mostlygreen,FinalRedContrast,FinalGreenContrast,1185.9886470829952,1187.054142042005,1,051926db,001,2026-05-19_10h28.58.807,priming,,2026.1.3,59.9448956503028,2026-05-19 10h28.59.119938 -0700,
GR_Congruent_RedCue_RedProbe_Top,GreenGaborBoth.png,RedGaborBoth.png,GreenGaborBoth.png,RedGaborDisappearTop.png,Red.mp3,red,top,56,56,0,,,,0,56,56,0,1187.0698392080376,,,,,,,,,,,,,,,,top,,,,,,,,1187.0542376250378,1195.8035750000272,1195.8037428749958,1201.053442958044,1201.0599372080178,1202.3035068330355,1202.3047970000189,1203.32050166704,1203.321662750037,1205.30432908301,evensplit,FinalRedContrast,FinalGreenContrast,1205.30471175001,1207.237622332992,1,051926db,001,2026-05-19_10h28.58.807,priming,,2026.1.3,59.9448956503028,2026-05-19 10h28.59.119938 -0700,
GR_Congruent_RedCue_RedProbe_Top,GreenGaborBoth.png,RedGaborBoth.png,GreenGaborBoth.png,RedGaborDisappearTop.png,Red.mp3,red,top,57,57,0,,,,0,57,57,64,1207.2533478750265,,,,,,,,,,,,,,,,top,,,,,,,,1207.237745542021,1210.9204345830367,1210.92060016701,1216.1701253330102,1216.1765267500305,1217.420121333038,1217.4219820420258,1219.653812292032,1219.6555238330038,1222.104320250044,evensplit,FinalRedContrast,FinalGreenContrast,1222.1045879580197,1223.1543196249986,1,051926db,001,2026-05-19_10h28.58.807,priming,,2026.1.3,59.9448956503028,2026-05-19 10h28.59.119938 -0700,
GR_Incongruent_RedCue_GreenProbe_Top,GreenGaborBoth.png,RedGaborBoth.png,GreenGaborDisappearTop.png,RedGaborBoth.png,Red.mp3,red,top,58,58,0,,,,0,58,58,28,1223.1700804579887,,,,,,,,,,,,,,,,top,,,,,,,,1223.154415625031,1225.7370077919913,1225.7371729580336,1230.9867713330314,1230.9932214170112,1232.2368061250309,1232.2386859580292,1233.8206722080358,1233.8221947920392,1234.9378380000126,mostlygreen,FinalRedContrast,FinalGreenContrast,1234.9385113749886,1236.0877728750347,1,051926db,001,2026-05-19_10h28.58.807,priming,,2026.1.3,59.9448956503028,2026-05-19 10h28.59.119938 -0700,
GR_Incongruent_GreenCue_RedProbe_Bottom,GreenGaborBoth.png,RedGaborBoth.png,GreenGaborBoth.png,RedGaborDisappearBottom.png,Green.mp3,green,bottom,59,59,0,,,,0,59,59,31,1236.103561958007,,,,,,,,,,,,,,,,bottom,,,,,,,,1236.0896336250007,1242.9538607500144,1242.9540290830191,1248.2035062499926,1248.2099124580272,1249.4535845000064,1249.455088125018,1251.87058979203,1251.8722974170232,1253.9545071250177,mostlygreen,FinalRedContrast,FinalGreenContrast,1253.955110333045,1255.3543914170004,1,051926db,001,2026-05-19_10h28.58.807,priming,,2026.1.3,59.9448956503028,2026-05-19 10h28.59.119938 -0700,
GR_Incongruent_RedCue_GreenProbe_Bottom,GreenGaborBoth.png,RedGaborBoth.png,GreenGaborDisappearBottom.png,RedGaborBoth.png,Red.mp3,red,bottom,60,60,0,,,,0,60,60,61,1255.3702044580132,,,,,,,,,,,,,,,,bottom,,,,,,,,1255.3560618750053,1258.4708794580074,1258.4710587080335,1263.7202273330186,1263.72674129199,1264.9703370000352,1264.9717405420379,1265.704000333033,1265.7056166669936,1267.1877879580134,mostlygreen,FinalRedContrast,FinalGreenContrast,1267.1890643330407,1268.9046112080105,1,051926db,001,2026-05-19_10h28.58.807,priming,,2026.1.3,59.9448956503028,2026-05-19 10h28.59.119938 -0700,
GR_Congruent_RedCue_RedProbe_Top,GreenGaborBoth.png,RedGaborBoth.png,GreenGaborBoth.png,RedGaborDisappearTop.png,Red.mp3,red,top,61,61,0,,,,0,61,61,56,1268.9203519170405,,,,,,,,,,,,,,,,top,,,,,,,,1268.9047156250454,1271.3873785000178,1271.3875396670192,1276.6370767920162,1276.6434787500184,1277.8870318750269,1277.8886393750436,1279.1707757500117,1279.171863250027,1280.5545276670018,mostlyred,FinalRedContrast,FinalGreenContrast,1280.5556847080006,1282.1379128750414,1,051926db,001,2026-05-19_10h28.58.807,priming,,2026.1.3,59.9448956503028,2026-05-19 10h28.59.119938 -0700,
GR_Incongruent_GreenCue_RedProbe_Bottom,GreenGaborBoth.png,RedGaborBoth.png,GreenGaborBoth.png,RedGaborDisappearBottom.png,Green.mp3,green,bottom,62,62,0,,,,0,62,62,55,1282.1535714170313,,,,,,,,,,,,,,,,bottom,,,,,,,,1282.1399214999983,1284.0206306670443,1284.0207964170258,1289.270348082995,1289.2767568330164,1290.5204394580214,1290.5221877500298,1291.8707605000236,1291.8724453750183,1293.1544961670297,mostlyred,FinalRedContrast,FinalGreenContrast,1293.1552881670068,1294.387908750039,1,051926db,001,2026-05-19_10h28.58.807,priming,,2026.1.3,59.9448956503028,2026-05-19 10h28.59.119938 -0700,
GR_Congruent_GreenCue_GreenProbe_Bottom,GreenGaborBoth.png,RedGaborBoth.png,GreenGaborDisappearBottom.png,RedGaborBoth.png,Green.mp3,green,bottom,63,63,0,,,,0,63,63,67,1294.4036291250377,,,,,,,,,,,,,,,,bottom,,,,,,,,1294.3880562080303,1297.1040067500435,1297.1041752920137,1302.3540692499955,1302.3610998750082,1303.6037836670293,1303.6056122920127,1304.3375932920026,1304.3392170000006,1306.3214307500166,mostlygreen,FinalRedContrast,FinalGreenContrast,1306.3216992500238,1307.854659292032,1,051926db,001,2026-05-19_10h28.58.807,priming,,2026.1.3,59.9448956503028,2026-05-19 10h28.59.119938 -0700,
GR_Congruent_GreenCue_GreenProbe_Top,GreenGaborBoth.png,RedGaborBoth.png,GreenGaborDisappearTop.png,RedGaborBoth.png,Green.mp3,green,top,64,64,0,,,,0,64,64,58,1307.8704338750103,,,,,,,,,,,,,,,,top,,,,,,,,1307.8547791670426,1311.6877753330045,1311.6879490000429,1316.9371576250414,1316.9450745829963,1318.187146375014,1318.1888417080045,1319.7375270000193,1319.7391207499895,1321.171470042027,mostlygreen,FinalRedContrast,FinalGreenContrast,1321.1725444170297,1322.671431166993,1,051926db,001,2026-05-19_10h28.58.807,priming,,2026.1.3,59.9448956503028,2026-05-19 10h28.59.119938 -0700,
GR_Congruent_RedCue_RedProbe_Bottom,GreenGaborBoth.png,RedGaborBoth.png,GreenGaborBoth.png,RedGaborDisappearBottom.png,Red.mp3,red,bottom,65,65,0,,,,0,65,65,9,1322.6871094580274,,,,,,,,,,,,,,,,bottom,,,,,,,,1322.6730927920435,1330.7208052499918,1330.7209655829938,1335.970628500043,1335.9770836670068,1337.2206583750085,1337.221933917026,1338.6877123750164,1338.6892138750409,1340.0882385830046,mostlygreen,FinalRedContrast,FinalGreenContrast,1340.0888611249975,1343.4047706249985,1,051926db,001,2026-05-19_10h28.58.807,priming,,2026.1.3,59.9448956503028,2026-05-19 10h28.59.119938 -0700,
GR_Incongruent_GreenCue_RedProbe_Top,GreenGaborBoth.png,RedGaborBoth.png,GreenGaborBoth.png,RedGaborDisappearTop.png,Green.mp3,green,top,66,66,0,,,,0,66,66,70,1343.4205028330325,,,,,,,,,,,,,,,,top,,,,,,,,1343.4067464580294,1345.90859120799,1345.9087563750218,1351.1539542080136,1351.1602647920372,1352.4039949580329,1352.4060272080242,1353.187733000028,1353.1894240000402,1354.9547856670106,mostlygreen,FinalRedContrast,FinalGreenContrast,1354.9559636249905,1356.9383226250065,1,051926db,001,2026-05-19_10h28.58.807,priming,,2026.1.3,59.9448956503028,2026-05-19 10h28.59.119938 -0700,
GR_Congruent_RedCue_RedProbe_Bottom,GreenGaborBoth.png,RedGaborBoth.png,GreenGaborBoth.png,RedGaborDisappearBottom.png,Red.mp3,red,bottom,67,67,0,,,,0,67,67,25,1356.9539161670255,,,,,,,,,,,,,,,,bottom,,,,,,,,1356.9399141250178,1371.254705875006,1371.254887874995,1376.5040889169904,1376.5104722499964,1377.7540997500182,1377.7559791670064,1378.8548424170003,1378.8555118330405,1380.4883146249922,mostlyred,FinalRedContrast,FinalGreenContrast,1380.4885845420067,1381.8883402500069,1,051926db,001,2026-05-19_10h28.58.807,priming,,2026.1.3,59.9448956503028,2026-05-19 10h28.59.119938 -0700,
GR_Incongruent_RedCue_GreenProbe_Top,GreenGaborBoth.png,RedGaborBoth.png,GreenGaborDisappearTop.png,RedGaborBoth.png,Red.mp3,red,top,68,68,0,,,,0,68,68,60,1381.9040467080195,,,,,,,,,,,,,,,,top,,,,,,,,1381.888441874995,1384.7044954579906,1384.7046700000064,1389.954092458007,1389.9604809579905,1391.2041298749973,1391.2057791670086,1391.8711577500217,1391.87247570802,1393.221675583045,mostlygreen,FinalRedContrast,FinalGreenContrast,1393.222642083012,1394.554949707992,1,051926db,001,2026-05-19_10h28.58.807,priming,,2026.1.3,59.9448956503028,2026-05-19 10h28.59.119938 -0700,
GR_Congruent_RedCue_RedProbe_Bottom,GreenGaborBoth.png,RedGaborBoth.png,GreenGaborBoth.png,RedGaborDisappearBottom.png,Red.mp3,red,bottom,69,69,0,,,,0,69,69,57,1394.5706381670316,,,,,,,,,,,,,,,,bottom,,,,,,,,1394.5550499170204,1399.0210221250309,1399.0211847920436,1404.2709119170322,1404.2788924170309,1405.5209321670118,1405.5225902920356,1408.1379896250437,1408.139047750039,1409.8384113750071,mostlygreen,FinalRedContrast,FinalGreenContrast,1409.8391459580162,1411.7383703330415,1,051926db,001,2026-05-19_10h28.58.807,priming,,2026.1.3,59.9448956503028,2026-05-19 10h28.59.119938 -0700,
GR_Congruent_GreenCue_GreenProbe_Bottom,GreenGaborBoth.png,RedGaborBoth.png,GreenGaborDisappearBottom.png,RedGaborBoth.png,Green.mp3,green,bottom,70,70,0,,,,0,70,70,11,1411.7541310000233,,,,,,,,,,,,,,,,bottom,,,,,,,,1411.740236542013,1415.9378212080337,1415.9379859170294,1421.1874881670228,1421.1950341670308,1422.4375763330027,1422.4393555830466,1423.5713462920394,1423.5729334580246,1427.6217474170262,mostlyred,FinalRedContrast,FinalGreenContrast,1427.6228493330418,1429.8885177920456,1,051926db,001,2026-05-19_10h28.58.807,priming,,2026.1.3,59.9448956503028,2026-05-19 10h28.59.119938 -0700,
GR_Incongruent_RedCue_GreenProbe_Bottom,GreenGaborBoth.png,RedGaborBoth.png,GreenGaborDisappearBottom.png,RedGaborBoth.png,Red.mp3,red,bottom,71,71,0,,,,0,71,71,5,1429.904066874995,,,,,,,,,,,,,,,,bottom,,,,,,,,1429.8902186670457,1433.438151750015,1433.4383207500214,1438.687693874992,1438.6940997920465,1439.9377207920188,1439.9394390420057,1440.8881819579983,1440.8892762080068,1442.20513604203,mostlygreen,FinalRedContrast,FinalGreenContrast,1442.2062692079926,1443.4218775830232,1,051926db,001,2026-05-19_10h28.58.807,priming,,2026.1.3,59.9448956503028,2026-05-19 10h28.59.119938 -0700,
GR_Congruent_RedCue_RedProbe_Top,GreenGaborBoth.png,RedGaborBoth.png,GreenGaborBoth.png,RedGaborDisappearTop.png,Red.mp3,red,top,72,72,0,,,,0,72,72,24,1443.4375567079987,,,,,,,,,,,,,,,,top,,,,,,,,1443.4219734580256,1449.9713028750266,1449.9714728750405,1455.2210338750156,1455.2284920419916,1456.471051667002,1456.472721041995,1459.33802658302,1459.3398265000433,1462.9052137079998,mostlygreen,FinalRedContrast,FinalGreenContrast,1462.9060848749941,1468.038878499996,1,051926db,001,2026-05-19_10h28.58.807,priming,,2026.1.3,59.9448956503028,2026-05-19 10h28.59.119938 -0700,
GR_Congruent_GreenCue_GreenProbe_Bottom,GreenGaborBoth.png,RedGaborBoth.png,GreenGaborDisappearBottom.png,RedGaborBoth.png,Green.mp3,green,bottom,73,73,0,,,,0,73,73,43,1468.05433420802,,,,,,,,,,,,,,,,bottom,,,,,,,,1468.0407091670204,1470.5715195420198,1470.5716846670257,1475.8211565000238,1475.8274871670292,1477.0711400000146,1477.072461667005,1479.7882323330268,1479.7894336250029,1481.6720273750252,mostlygreen,FinalRedContrast,FinalGreenContrast,1481.6731293750345,1482.7553174170316,1,051926db,001,2026-05-19_10h28.58.807,priming,,2026.1.3,59.9448956503028,2026-05-19 10h28.59.119938 -0700,
GR_Incongruent_RedCue_GreenProbe_Top,GreenGaborBoth.png,RedGaborBoth.png,GreenGaborDisappearTop.png,RedGaborBoth.png,Red.mp3,red,top,74,74,0,,,,0,74,74,4,1482.7711325000273,,,,,,,,,,,,,,,,top,,,,,,,,1482.7571090830024,1491.2381305420422,1491.2382945829886,1496.487706749991,1496.4945055830176,1497.7380418750108,1497.7400504170218,1500.2881944580004,1500.289962000039,1503.5387265830068,mostlygreen,FinalRedContrast,FinalGreenContrast,1503.539406833006,1505.3054771250463,1,051926db,001,2026-05-19_10h28.58.807,priming,,2026.1.3,59.9448956503028,2026-05-19 10h28.59.119938 -0700,
GR_Congruent_GreenCue_GreenProbe_Top,GreenGaborBoth.png,RedGaborBoth.png,GreenGaborDisappearTop.png,RedGaborBoth.png,Green.mp3,green,top,75,75,0,,,,0,75,75,42,1505.3212081670063,,,,,,,,,,,,,,,,top,,,,,,,,1505.3072914170334,1508.2215990420082,1508.2217591670342,1513.471192291996,1513.4776282500243,1514.7213061249931,1514.7225463750074,1516.788289249991,1516.7901716670021,1517.9720347920083,mostlyred,FinalRedContrast,FinalGreenContrast,1517.973164791998,1519.1554687500466,1,051926db,001,2026-05-19_10h28.58.807,priming,,2026.1.3,59.9448956503028,2026-05-19 10h28.59.119938 -0700,
GR_Incongruent_GreenCue_RedProbe_Top,GreenGaborBoth.png,RedGaborBoth.png,GreenGaborBoth.png,RedGaborDisappearTop.png,Green.mp3,green,top,76,76,0,,,,0,76,76,46,1519.171230625012,,,,,,,,,,,,,,,,top,,,,,,,,1519.1555760829942,1524.5881965419976,1524.5883618750377,1529.8379765829886,1529.8453333330108,1531.087963958038,1531.0895719580003,1532.4884181669913,1532.4894377500168,1534.6220892920392,evensplit,FinalRedContrast,FinalGreenContrast,1534.6231082080049,1536.455579750007,1,051926db,001,2026-05-19_10h28.58.807,priming,,2026.1.3,59.9448956503028,2026-05-19 10h28.59.119938 -0700,
GR_Incongruent_GreenCue_RedProbe_Top,GreenGaborBoth.png,RedGaborBoth.png,GreenGaborBoth.png,RedGaborDisappearTop.png,Green.mp3,green,top,77,77,0,,,,0,77,77,54,1536.471211750002,,,,,,,,,,,,,,,,top,,,,,,,,1536.4557102080435,1545.688384292007,1545.6885577079956,1550.9380865830462,1550.9445424170117,1552.1879856250016,1552.1900235830108,1553.3385927920463,1553.3400438750396,1554.7388062920072,mostlygreen,FinalRedContrast,FinalGreenContrast,1554.7401994999964,1556.0722512080101,1,051926db,001,2026-05-19_10h28.58.807,priming,,2026.1.3,59.9448956503028,2026-05-19 10h28.59.119938 -0700,
GR_Congruent_GreenCue_GreenProbe_Bottom,GreenGaborBoth.png,RedGaborBoth.png,GreenGaborDisappearBottom.png,RedGaborBoth.png,Green.mp3,green,bottom,78,78,0,,,,0,78,78,27,1556.087961250043,,,,,,,,,,,,,,,,bottom,,,,,,,,1556.072345875029,1565.2050498329918,1565.2052125420305,1570.454649124993,1570.462171333027,1571.7046930420329,1571.706479250046,1572.7886237080093,1572.7901199579937,1573.9723662920296,evensplit,FinalRedContrast,FinalGreenContrast,1573.9735683749896,1575.0223186250078,1,051926db,001,2026-05-19_10h28.58.807,priming,,2026.1.3,59.9448956503028,2026-05-19 10h28.59.119938 -0700,
GR_Incongruent_RedCue_GreenProbe_Top,GreenGaborBoth.png,RedGaborBoth.png,GreenGaborDisappearTop.png,RedGaborBoth.png,Red.mp3,red,top,79,79,0,,,,0,79,79,68,1575.0380807080073,,,,,,,,,,,,,,,,top,,,,,,,,1575.0239903749898,1584.321842208039,1584.3220027920324,1589.5715022080112,1589.5779263330041,1590.8215424999944,1590.8232319999952,1592.605269416992,1592.6068901250255,1594.155637458025,mostlygreen,FinalRedContrast,FinalGreenContrast,1594.156751750037,1595.1057022080058,1,051926db,001,2026-05-19_10h28.58.807,priming,,2026.1.3,59.9448956503028,2026-05-19 10h28.59.119938 -0700,
GR_Congruent_RedCue_RedProbe_Top,GreenGaborBoth.png,RedGaborBoth.png,GreenGaborBoth.png,RedGaborDisappearTop.png,Red.mp3,red,top,80,0,1,,,,1,0,80,16,1595.1215043330449,,,,,,,,,,,,,,,,top,,,,,,,,1595.105798375036,2029.1235326250317,2029.1236987920129,2034.3731986249913,2034.3824660830433,2035.6232517500175,2035.6245123330154,2036.8402138330275,2036.841971167014,2038.2240195420454,evensplit,FinalRedContrast,FinalGreenContrast,2038.2251535000396,2039.6739334170124,1,051926db,001,2026-05-19_10h28.58.807,priming,,2026.1.3,59.9448956503028,2026-05-19 10h28.59.119938 -0700,
GR_Incongruent_RedCue_GreenProbe_Top,GreenGaborBoth.png,RedGaborBoth.png,GreenGaborDisappearTop.png,RedGaborBoth.png,Red.mp3,red,top,81,1,1,,,,1,1,81,4,2039.689716666995,,,,,,,,,,,,,,,,top,,,,,,,,2039.6740389170009,2042.0402595000342,2042.040422458027,2047.2898691250011,2047.297493375023,2048.5397694580024,2048.5418747499934,2049.356988167041,2049.358579542022,2050.7909651669906,evensplit,FinalRedContrast,FinalGreenContrast,2050.7913660830236,2052.674208250013,1,051926db,001,2026-05-19_10h28.58.807,priming,,2026.1.3,59.9448956503028,2026-05-19 10h28.59.119938 -0700,
GR_Incongruent_GreenCue_RedProbe_Top,GreenGaborBoth.png,RedGaborBoth.png,GreenGaborBoth.png,RedGaborDisappearTop.png,Green.mp3,green,top,82,2,1,,,,1,2,82,70,2052.689949917025,,,,,,,,,,,,,,,,top,,,,,,,,2052.6761510830256,2062.4069440829917,2062.407107292034,2067.656681958004,2067.663749292027,2068.9067257920397,2068.908320458024,2069.607099667017,2069.6082557920017,2071.0741793329944,mostlyred,FinalRedContrast,FinalGreenContrast,2071.075299833028,2072.6409457920236,1,051926db,001,2026-05-19_10h28.58.807,priming,,2026.1.3,59.9448956503028,2026-05-19 10h28.59.119938 -0700,
GR_Congruent_RedCue_RedProbe_Bottom,GreenGaborBoth.png,RedGaborBoth.png,GreenGaborBoth.png,RedGaborDisappearBottom.png,Red.mp3,red,bottom,83,3,1,,,,1,3,83,49,2072.656613833038,,,,,,,,,,,,,,,,bottom,,,,,,,,2072.642587625014,2074.6569188330323,2074.657083042024,2079.906684208021,2079.914280625002,2081.1566880420432,2081.158532917034,2082.040446750005,2082.042056083039,2083.2910386250005,mostlygreen,FinalRedContrast,FinalGreenContrast,2083.292251583014,2084.740917832998,1,051926db,001,2026-05-19_10h28.58.807,priming,,2026.1.3,59.9448956503028,2026-05-19 10h28.59.119938 -0700,
GR_Incongruent_RedCue_GreenProbe_Bottom,GreenGaborBoth.png,RedGaborBoth.png,GreenGaborDisappearBottom.png,RedGaborBoth.png,Red.mp3,red,bottom,84,4,1,,,,1,4,84,53,2084.7567628330435,,,,,,,,,,,,,,,,bottom,,,,,,,,2084.741014625004,2086.19042787503,2086.190588917001,2091.4400430420064,2091.4475549579947,2092.690172792005,2092.6918243330438,2093.740569000016,2093.7420719999936,2094.674341958016,mostlygreen,FinalRedContrast,FinalGreenContrast,2094.6749787080334,2095.8576773329987,1,051926db,001,2026-05-19_10h28.58.807,priming,,2026.1.3,59.9448956503028,2026-05-19 10h28.59.119938 -0700,
GR_Incongruent_GreenCue_RedProbe_Bottom,GreenGaborBoth.png,RedGaborBoth.png,GreenGaborBoth.png,RedGaborDisappearBottom.png,Green.mp3,green,bottom,85,5,1,,,,1,5,85,7,2095.873407417035,,,,,,,,,,,,,,,,bottom,,,,,,,,2095.859539291996,2096.9571118750027,2096.9572725000326,2102.2068098750315,2102.213196208002,2103.45681266702,2103.458495583036,2104.8739868330304,2104.875216125045,2106.007608542044,mostlyred,FinalRedContrast,FinalGreenContrast,2106.0086767080356,2107.7242885000305,1,051926db,001,2026-05-19_10h28.58.807,priming,,2026.1.3,59.9448956503028,2026-05-19 10h28.59.119938 -0700,
GR_Congruent_RedCue_RedProbe_Top,GreenGaborBoth.png,RedGaborBoth.png,GreenGaborBoth.png,RedGaborDisappearTop.png,Red.mp3,red,top,86,6,1,,,,1,6,86,56,2107.740123833006,,,,,,,,,,,,,,,,top,,,,,,,,2107.726056417043,2109.0571386250085,2109.05729937501,2114.3069434580393,2114.315495417046,2115.5568147079903,2115.5585122500197,2116.2572437920026,2116.258725291991,2117.4909945420222,mostlyred,FinalRedContrast,FinalGreenContrast,2117.4922152080107,2118.8411542500253,1,051926db,001,2026-05-19_10h28.58.807,priming,,2026.1.3,59.9448956503028,2026-05-19 10h28.59.119938 -0700,
RR_non_riv_catch_GreenCue_RedProbe_Bottom,Blank.png,RedGaborBoth.png,Blank.png,RedGaborDisappearBottom.png,Green.mp3,green,bottom,87,7,1,,,,1,7,87,75,2118.8567913750303,,,,,,,,,,,,,,,,bottom,,,,,,,,2118.843159125012,2124.557263625029,2124.5574249580386,2129.8070336669916,2129.813733874995,2131.0569787500426,2131.058468083036,2132.5241538330447,2132.525666792004,2133.657727957994,allred,FinalRedContrast,FinalGreenContrast,2133.659010500007,2135.37445225002,1,051926db,001,2026-05-19_10h28.58.807,priming,,2026.1.3,59.9448956503028,2026-05-19 10h28.59.119938 -0700,
GR_Incongruent_GreenCue_RedProbe_Bottom,GreenGaborBoth.png,RedGaborBoth.png,GreenGaborBoth.png,RedGaborDisappearBottom.png,Green.mp3,green,bottom,88,8,1,,,,1,8,88,55,2135.390108917025,,,,,,,,,,,,,,,,bottom,,,,,,,,2135.374549292028,2136.873879541992,2136.874042750045,2142.123657624994,2142.1303130000015,2143.373641207989,2143.37491766701,2144.407331458002,2144.4084103750065,2147.2410185830086,mostlyred,FinalRedContrast,FinalGreenContrast,2147.242360458011,2148.557774875022,1,051926db,001,2026-05-19_10h28.58.807,priming,,2026.1.3,59.9448956503028,2026-05-19 10h28.59.119938 -0700,
GR_Congruent_RedCue_RedProbe_Bottom,GreenGaborBoth.png,RedGaborBoth.png,GreenGaborBoth.png,RedGaborDisappearBottom.png,Red.mp3,red,bottom,89,9,1,,,,1,9,89,33,2148.5736663330463,,,,,,,,,,,,,,,,bottom,,,,,,,,2148.559417958022,2150.5074115419993,2150.5075746250222,2155.7570306250127,2155.7634682080243,2157.007022958016,2157.00888841704,2157.6908479580306,2157.6923598750145,2158.8579191670287,mostlyred,FinalRedContrast,FinalGreenContrast,2158.8590026670136,2160.1913275000406,1,051926db,001,2026-05-19_10h28.58.807,priming,,2026.1.3,59.9448956503028,2026-05-19 10h28.59.119938 -0700,
GR_Congruent_GreenCue_GreenProbe_Bottom,GreenGaborBoth.png,RedGaborBoth.png,GreenGaborDisappearBottom.png,RedGaborBoth.png,Green.mp3,green,bottom,90,10,1,,,,1,10,90,19,2160.2070562500157,,,,,,,,,,,,,,,,bottom,,,,,,,,2160.1931155000348,2162.007376333,2162.007541375002,2167.2569483750267,2167.264573291992,2168.507085999998,2168.5087765830103,2169.6075839580153,2169.6092157500098,2176.2413114579977,mostlyred,FinalRedContrast,FinalGreenContrast,2176.2419506669976,2177.5079005419975,1,051926db,001,2026-05-19_10h28.58.807,priming,,2026.1.3,59.9448956503028,2026-05-19 10h28.59.119938 -0700,
GR_Congruent_GreenCue_GreenProbe_Top,GreenGaborBoth.png,RedGaborBoth.png,GreenGaborDisappearTop.png,RedGaborBoth.png,Green.mp3,green,top,91,11,1,,,,1,11,91,18,2177.523624750029,,,,,,,,,,,,,,,,bottom,,,,,,,,2177.5079972920357,2179.6574463750003,2179.6576082080137,2184.9071794170304,2184.9148251250153,2186.157207167009,2186.1588751670206,2188.6742954580113,2188.6753662500414,2190.474650875025,mostlyred,FinalRedContrast,FinalGreenContrast,2190.4757735000458,2191.691358250042,1,051926db,001,2026-05-19_10h28.58.807,priming,,2026.1.3,59.9448956503028,2026-05-19 10h28.59.119938 -0700,
GR_Incongruent_RedCue_GreenProbe_Top,GreenGaborBoth.png,RedGaborBoth.png,GreenGaborDisappearTop.png,RedGaborBoth.png,Red.mp3,red,top,92,12,1,,,,1,12,92,44,2191.7071347500314,,,,,,,,,,,,,,,,top,,,,,,,,2191.6930015420076,2193.8741972080315,2193.8743659169995,2199.1238264170242,2199.130368000013,2200.37381720799,2200.3752820420195,2201.141064250027,2201.1425917079905,2214.424748999998,evensplit,FinalRedContrast,FinalGreenContrast,2214.4255009170156,2216.074649750022,1,051926db,001,2026-05-19_10h28.58.807,priming,,2026.1.3,59.9448956503028,2026-05-19 10h28.59.119938 -0700,
GR_Incongruent_GreenCue_RedProbe_Bottom,GreenGaborBoth.png,RedGaborBoth.png,GreenGaborBoth.png,RedGaborDisappearBottom.png,Green.mp3,green,bottom,93,13,1,,,,1,13,93,15,2216.090423332993,,,,,,,,,,,,,,,,bottom,,,,,,,,2216.076550042024,2217.807641417021,2217.8078082080465,2223.0573257500073,2223.0648569170153,2224.307304624992,2224.308954792039,2225.341431125009,2225.3424403750105,2227.7581615830422,mostlyred,FinalRedContrast,FinalGreenContrast,2227.7592745420407,2228.9248342920328,1,051926db,001,2026-05-19_10h28.58.807,priming,,2026.1.3,59.9448956503028,2026-05-19 10h28.59.119938 -0700,
GR_Incongruent_RedCue_GreenProbe_Bottom,GreenGaborBoth.png,RedGaborBoth.png,GreenGaborDisappearBottom.png,RedGaborBoth.png,Red.mp3,red,bottom,94,14,1,,,,1,14,94,5,2228.940562667034,,,,,,,,,,,,,,,,bottom,,,,,,,,2228.9264997499995,2231.0076784170233,2231.007846250024,2236.2572726249928,2236.2659321250394,2237.507337625022,2237.508988332993,2238.441173875006,2238.442315708031,2240.9748395830393,mostlygreen,FinalRedContrast,FinalGreenContrast,2240.9759237079998,2242.908103958005,1,051926db,001,2026-05-19_10h28.58.807,priming,,2026.1.3,59.9448956503028,2026-05-19 10h28.59.119938 -0700,
GR_Incongruent_GreenCue_RedProbe_Bottom,GreenGaborBoth.png,RedGaborBoth.png,GreenGaborBoth.png,RedGaborDisappearBottom.png,Green.mp3,green,bottom,95,15,1,,,,1,15,95,71,2242.923890542006,,,,,,,,,,,,,,,,bottom,,,,,,,,2242.910067042045,2245.907795667008,2245.90796195803,2251.1574531249935,2251.1648457919946,2252.407481625036,2252.4088980000233,2253.191333541996,2253.1921656670165,2255.9085187920136,mostlyred,FinalRedContrast,FinalGreenContrast,2255.9094558330253,2258.741582125018,1,051926db,001,2026-05-19_10h28.58.807,priming,,2026.1.3,59.9448956503028,2026-05-19 10h28.59.119938 -0700,
GR_Congruent_RedCue_RedProbe_Bottom,GreenGaborBoth.png,RedGaborBoth.png,GreenGaborBoth.png,RedGaborDisappearBottom.png,Red.mp3,red,bottom,96,16,1,,,,1,16,96,25,2258.7573555000126,,,,,,,,,,,,,,,,bottom,,,,,,,,2258.7431974580395,2262.241097958002,2262.241264457989,2267.490741042013,2267.497130792006,2268.7407159580034,2268.7428772500134,2269.5583599579986,2269.558646499994,2272.708417957998,mostlyred,FinalRedContrast,FinalGreenContrast,2272.7090342920274,2274.008367875009,1,051926db,001,2026-05-19_10h28.58.807,priming,,2026.1.3,59.9448956503028,2026-05-19 10h28.59.119938 -0700,
GR_Congruent_GreenCue_GreenProbe_Bottom,GreenGaborBoth.png,RedGaborBoth.png,GreenGaborDisappearBottom.png,RedGaborBoth.png,Green.mp3,green,bottom,97,17,1,,,,1,17,97,11,2274.0240372919943,,,,,,,,,,,,,,,,bottom,,,,,,,,2274.0101723330445,2275.624469041999,2275.62463187502,2280.874029083003,2280.882433083025,2282.1241920420434,2282.125630374998,2283.6078355000354,2283.6089784170035,2285.408315083012,mostlygreen,FinalRedContrast,FinalGreenContrast,2285.409407500003,2286.1250688750297,1,051926db,001,2026-05-19_10h28.58.807,priming,,2026.1.3,59.9448956503028,2026-05-19 10h28.59.119938 -0700,
GR_Congruent_GreenCue_GreenProbe_Bottom,GreenGaborBoth.png,RedGaborBoth.png,GreenGaborDisappearBottom.png,RedGaborBoth.png,Green.mp3,green,bottom,98,18,1,,,,1,18,98,43,2286.1407690420165,,,,,,,,,,,,,,,,bottom,,,,,,,,2286.125172625005,2288.14159933303,2288.1417816670146,2293.3908283330384,2293.3972463750397,2294.640899582999,2294.64248554199,2295.624738958024,2295.625863583002,2296.508387833019,mostlygreen,FinalRedContrast,FinalGreenContrast,2296.509586042026,2297.475048375025,1,051926db,001,2026-05-19_10h28.58.807,priming,,2026.1.3,59.9448956503028,2026-05-19 10h28.59.119938 -0700,
GR_Incongruent_RedCue_GreenProbe_Bottom,GreenGaborBoth.png,RedGaborBoth.png,GreenGaborDisappearBottom.png,RedGaborBoth.png,Red.mp3,red,bottom,99,19,1,,,,1,19,99,13,2297.490808542003,,,,,,,,,,,,,,,,bottom,,,,,,,,2297.4767139170435,2298.891143332992,2298.8913061670028,2304.1408126250026,2304.1473796670325,2305.3908737080055,2305.3925117920153,2306.308044000005,2306.309148875007,2308.1584153330186,evensplit,FinalRedContrast,FinalGreenContrast,2308.159535792016,2309.62514054199,1,051926db,001,2026-05-19_10h28.58.807,priming,,2026.1.3,59.9448956503028,2026-05-19 10h28.59.119938 -0700,
GR_Congruent_RedCue_RedProbe_Top,GreenGaborBoth.png,RedGaborBoth.png,GreenGaborBoth.png,RedGaborDisappearTop.png,Red.mp3,red,top,100,20,1,,,,1,20,100,24,2309.640757667017,,,,,,,,,,,,,,,,top,,,,,,,,2309.6252465000143,2311.3077900420176,2311.3079524170025,2316.5575404170086,2316.5650123750092,2317.8076237080386,2317.8092170419986,2318.658140833024,2318.6598700830364,2320.1419271670165,mostlyred,FinalRedContrast,FinalGreenContrast,2320.142552000005,2322.125729417021,1,051926db,001,2026-05-19_10h28.58.807,priming,,2026.1.3,59.9448956503028,2026-05-19 10h28.59.119938 -0700,
GR_Incongruent_GreenCue_RedProbe_Top,GreenGaborBoth.png,RedGaborBoth.png,GreenGaborBoth.png,RedGaborDisappearTop.png,Green.mp3,green,top,101,21,1,,,,1,21,101,22,2322.140883916989,,,,,,,,,,,,,,,,top,,,,,,,,2322.127510541992,2323.858001250017,2323.8581644170335,2329.107615542016,2329.1140390830114,2330.3576937920297,2330.3595015419996,2331.241450667032,2331.2430272920174,2332.6586288330145,mostlygreen,FinalRedContrast,FinalGreenContrast,2332.659841250046,2333.9252518750145,1,051926db,001,2026-05-19_10h28.58.807,priming,,2026.1.3,59.9448956503028,2026-05-19 10h28.59.119938 -0700,
GG_non_riv_catch_GreenCue_GreenProbe_Top,GreenGaborBoth.png,Blank.png,GreenGaborDisappearTop.png,Blank.png,Green.mp3,green,top,102,22,1,,,,1,22,102,78,2333.9409666670254,,,,,,,,,,,,,,,,top,,,,,,,,2333.925349750032,2335.4579690830433,2335.458134042041,2340.7077306249994,2340.7145222499967,2341.957862917043,2341.95991533302,2343.2081258330145,2343.2096860000165,2344.475203707989,allgreen,FinalRedContrast,FinalGreenContrast,2344.4764677080093,2345.7251732500154,1,051926db,001,2026-05-19_10h28.58.807,priming,,2026.1.3,59.9448956503028,2026-05-19 10h28.59.119938 -0700,
GR_Congruent_GreenCue_GreenProbe_Top,GreenGaborBoth.png,RedGaborBoth.png,GreenGaborDisappearTop.png,RedGaborBoth.png,Green.mp3,green,top,103,23,1,,,,1,23,103,58,2345.7409354170086,,,,,,,,,,,,,,,,top,,,,,,,,2345.7252676670323,2348.2912951670005,2348.291457583022,2353.5413757500355,2353.5491815830464,2354.7912518330268,2354.792930833006,2356.024932500033,2356.026451417012,2357.4086972080404,mostlygreen,FinalRedContrast,FinalGreenContrast,2357.409163000004,2358.6253115000436,1,051926db,001,2026-05-19_10h28.58.807,priming,,2026.1.3,59.9448956503028,2026-05-19 10h28.59.119938 -0700,
GR_Incongruent_RedCue_GreenProbe_Bottom,GreenGaborBoth.png,RedGaborBoth.png,GreenGaborDisappearBottom.png,RedGaborBoth.png,Red.mp3,red,bottom,104,24,1,,,,1,24,104,21,2358.6411234580446,,,,,,,,,,,,,,,,bottom,,,,,,,,2358.6269589579897,2367.741917792009,2367.742090957996,2372.9910593749955,2372.9984164999914,2374.241198625008,2374.242437750043,2376.0248717080103,2376.026005542022,2378.7920325830346,mostlygreen,FinalRedContrast,FinalGreenContrast,2378.793237667007,2381.1420923330006,1,051926db,001,2026-05-19_10h28.58.807,priming,,2026.1.3,59.9448956503028,2026-05-19 10h28.59.119938 -0700,
GR_Incongruent_RedCue_GreenProbe_Top,GreenGaborBoth.png,RedGaborBoth.png,GreenGaborDisappearTop.png,RedGaborBoth.png,Red.mp3,red,top,105,25,1,,,,1,25,105,60,2381.1578598750057,,,,,,,,,,,,,,,,top,,,,,,,,2381.142190292012,2384.3252307500225,2384.3254023329937,2389.5746087080333,2389.580974832992,2390.8245341670117,2390.826441500045,2391.7416696670116,2391.743355625018,2392.891994167003,mostlygreen,FinalRedContrast,FinalGreenContrast,2392.893222625018,2394.3587822919944,1,051926db,001,2026-05-19_10h28.58.807,priming,,2026.1.3,59.9448956503028,2026-05-19 10h28.59.119938 -0700,
GR_Incongruent_GreenCue_RedProbe_Bottom,GreenGaborBoth.png,RedGaborBoth.png,GreenGaborBoth.png,RedGaborDisappearBottom.png,Green.mp3,green,bottom,106,26,1,,,,1,26,106,39,2394.3746211249963,,,,,,,,,,,,,,,,bottom,,,,,,,,2394.360763292003,2396.058176750026,2396.0583421670017,2401.3079222080414,2401.315471583046,2402.557964125008,2402.5598432080005,2407.4750540420064,2407.4761323750135,2413.642125042039,mostlygreen,FinalRedContrast,FinalGreenContrast,2413.6429615420057,2414.6588730000076,1,051926db,001,2026-05-19_10h28.58.807,priming,,2026.1.3,59.9448956503028,2026-05-19 10h28.59.119938 -0700,
GR_Congruent_GreenCue_GreenProbe_Top,GreenGaborBoth.png,RedGaborBoth.png,GreenGaborDisappearTop.png,RedGaborBoth.png,Green.mp3,green,top,107,27,1,,,,1,27,107,26,2414.674485167023,,,,,,,,,,,,,,,,top,,,,,,,,2414.658985875023,2416.8083333750255,2416.80849700002,2422.058024208003,2422.0643173330463,2423.30806054204,2423.309962416999,2424.1084727499983,2424.1099313329905,2425.1088313750224,mostlygreen,FinalRedContrast,FinalGreenContrast,2425.110012000019,2426.0423149170238,1,051926db,001,2026-05-19_10h28.58.807,priming,,2026.1.3,59.9448956503028,2026-05-19 10h28.59.119938 -0700,
GR_Congruent_RedCue_RedProbe_Bottom,GreenGaborBoth.png,RedGaborBoth.png,GreenGaborBoth.png,RedGaborDisappearBottom.png,Red.mp3,red,bottom,108,28,1,,,,1,28,108,9,2426.0580006670207,,,,,,,,,,,,,,,,bottom,,,,,,,,2426.043882750033,2428.458405417041,2428.458570333023,2433.7081147920107,2433.7145177079947,2434.95806891704,2434.959251458,2436.9251985829906,2436.9264154580305,2438.7255658330396,mostlygreen,FinalRedContrast,FinalGreenContrast,2438.726722125022,2439.7922359580407,1,051926db,001,2026-05-19_10h28.58.807,priming,,2026.1.3,59.9448956503028,2026-05-19 10h28.59.119938 -0700,
GR_Congruent_RedCue_RedProbe_Bottom,GreenGaborBoth.png,RedGaborBoth.png,GreenGaborBoth.png,RedGaborDisappearBottom.png,Red.mp3,red,bottom,109,29,1,,,,1,29,109,41,2439.8080542919924,,,,,,,,,,,,,,,,bottom,,,,,,,,2439.792338375002,2445.975092125009,2445.9752558750333,2451.2247439580387,2451.2311249170452,2452.474711332994,2452.476215417031,2458.175265000027,2458.176046333043,2461.708991124993,mostlygreen,FinalRedContrast,FinalGreenContrast,2461.7099671250326,2462.975753583014,1,051926db,001,2026-05-19_10h28.58.807,priming,,2026.1.3,59.9448956503028,2026-05-19 10h28.59.119938 -0700,
GR_Incongruent_GreenCue_RedProbe_Top,GreenGaborBoth.png,RedGaborBoth.png,GreenGaborBoth.png,RedGaborDisappearTop.png,Green.mp3,green,top,110,30,1,,,,1,30,110,38,2462.9914370420156,,,,,,,,,,,,,,,,top,,,,,,,,2462.977701958036,2464.858542208036,2464.8587050420465,2470.1082588750287,2470.115609417029,2471.358263000031,2471.3600073330454,2475.0252175829955,2475.026924417005,2476.5591239579953,mostlygreen,FinalRedContrast,FinalGreenContrast,2476.559703250008,2478.5257313330076,1,051926db,001,2026-05-19_10h28.58.807,priming,,2026.1.3,59.9448956503028,2026-05-19 10h28.59.119938 -0700,
GR_Incongruent_RedCue_GreenProbe_Bottom,GreenGaborBoth.png,RedGaborBoth.png,GreenGaborDisappearBottom.png,RedGaborBoth.png,Red.mp3,red,bottom,111,31,1,,,,1,31,111,61,2478.541464583017,,,,,,,,,,,,,,,,bottom,,,,,,,,2478.527491417015,2481.041878707998,2481.042039333028,2486.291590750043,2486.2979480000213,2487.5417050420074,2487.543343792029,2488.758766917046,2488.760058542015,2490.926196207991,mostlygreen,FinalRedContrast,FinalGreenContrast,2490.926509125042,2491.9925416670158,1,051926db,001,2026-05-19_10h28.58.807,priming,,2026.1.3,59.9448956503028,2026-05-19 10h28.59.119938 -0700,
GR_Incongruent_GreenCue_RedProbe_Top,GreenGaborBoth.png,RedGaborBoth.png,GreenGaborBoth.png,RedGaborDisappearTop.png,Green.mp3,green,top,112,32,1,,,,1,32,112,46,2492.0082186670043,,,,,,,,,,,,,,,,top,,,,,,,,2491.994354250026,2493.908653374994,2493.908818833006,2499.1583112500375,2499.164655542001,2500.4083897080272,2500.410032167041,2502.8087695830036,2502.8098718750407,2506.6424045420135,mostlygreen,FinalRedContrast,FinalGreenContrast,2506.6438107080176,2508.859164458001,1,051926db,001,2026-05-19_10h28.58.807,priming,,2026.1.3,59.9448956503028,2026-05-19 10h28.59.119938 -0700,
GR_Congruent_RedCue_RedProbe_Top,GreenGaborBoth.png,RedGaborBoth.png,GreenGaborBoth.png,RedGaborDisappearTop.png,Red.mp3,red,top,113,33,1,,,,1,33,113,40,2508.8748491250444,,,,,,,,,,,,,,,,top,,,,,,,,2508.8608257080195,2512.592045666999,2512.5922100000316,2517.8417481250362,2517.8481917080353,2519.091576167033,2519.0937025829917,2519.908764792024,2519.910292125016,2521.0759258749895,mostlygreen,FinalRedContrast,FinalGreenContrast,2521.0771571670193,2521.9759492080193,1,051926db,001,2026-05-19_10h28.58.807,priming,,2026.1.3,59.9448956503028,2026-05-19 10h28.59.119938 -0700,
GR_Incongruent_RedCue_GreenProbe_Top,GreenGaborBoth.png,RedGaborBoth.png,GreenGaborDisappearTop.png,RedGaborBoth.png,Red.mp3,red,top,114,34,1,,,,1,34,114,28,2521.9917627079994,,,,,,,,,,,,,,,,top,,,,,,,,2521.976046167023,2523.5254397920216,2523.5256074170466,2528.7751192080323,2528.7816141670337,2530.025139000034,2530.026865874999,2530.7422125000157,2530.743815916998,2532.2594228750095,allgreen,FinalRedContrast,FinalGreenContrast,2532.260086583032,2533.1593490830273,1,051926db,001,2026-05-19_10h28.58.807,priming,,2026.1.3,59.9448956503028,2026-05-19 10h28.59.119938 -0700,
GR_Incongruent_GreenCue_RedProbe_Top,GreenGaborBoth.png,RedGaborBoth.png,GreenGaborBoth.png,RedGaborDisappearTop.png,Green.mp3,green,top,115,35,1,,,,1,35,115,30,2533.175136167032,,,,,,,,,,,,,,,,top,,,,,,,,2533.161122291989,2534.458783875045,2534.4589443330187,2539.7085394170135,2539.715064292017,2540.958509583026,2540.960535124992,2542.908855832997,2542.910033208027,2544.0426119579934,allgreen,FinalRedContrast,FinalGreenContrast,2544.0438955420395,2545.0926791669917,1,051926db,001,2026-05-19_10h28.58.807,priming,,2026.1.3,59.9448956503028,2026-05-19 10h28.59.119938 -0700,
GR_Congruent_GreenCue_GreenProbe_Top,GreenGaborBoth.png,RedGaborBoth.png,GreenGaborDisappearTop.png,RedGaborBoth.png,Green.mp3,green,top,116,36,1,,,,1,36,116,66,2545.1084388330346,,,,,,,,,,,,,,,,top,,,,,,,,2545.092802542029,2546.508736125019,2546.5088972080266,2551.7584679580177,2551.764866708021,2553.008443000028,2553.009911041998,2555.042380208033,2555.04342458304,2556.259409833001,mostlygreen,FinalRedContrast,FinalGreenContrast,2556.2606615830446,2558.0594866670435,1,051926db,001,2026-05-19_10h28.58.807,priming,,2026.1.3,59.9448956503028,2026-05-19 10h28.59.119938 -0700,
GR_Congruent_GreenCue_GreenProbe_Top,GreenGaborBoth.png,RedGaborBoth.png,GreenGaborDisappearTop.png,RedGaborBoth.png,Green.mp3,green,top,117,37,1,,,,1,37,117,34,2558.075151750003,,,,,,,,,,,,,,,,top,,,,,,,,2558.0595836670254,2559.0755372919957,2559.075696707994,2564.325261583028,2564.331730875012,2565.5753226670204,2565.5766000000294,2566.7256324170157,2566.7271543749957,2567.7594232080155,allgreen,FinalRedContrast,FinalGreenContrast,2567.7605300419964,2569.2094603750156,1,051926db,001,2026-05-19_10h28.58.807,priming,,2026.1.3,59.9448956503028,2026-05-19 10h28.59.119938 -0700,
GR_Congruent_RedCue_RedProbe_Bottom,GreenGaborBoth.png,RedGaborBoth.png,GreenGaborBoth.png,RedGaborDisappearBottom.png,Red.mp3,red,bottom,118,38,1,,,,1,38,118,1,2569.225190750032,,,,,,,,,,,,,,,,bottom,,,,,,,,2569.211089916993,2570.675611375016,2570.6757801670465,2575.9252643330256,2575.9318003330263,2577.175333000021,2577.176559208019,2578.7923133750446,2578.7942126670387,2579.9926959580043,mostlyred,FinalRedContrast,FinalGreenContrast,2579.9941658750176,2581.2261649580323,1,051926db,001,2026-05-19_10h28.58.807,priming,,2026.1.3,59.9448956503028,2026-05-19 10h28.59.119938 -0700,
GR_Congruent_RedCue_RedProbe_Top,GreenGaborBoth.png,RedGaborBoth.png,GreenGaborBoth.png,RedGaborDisappearTop.png,Red.mp3,red,top,119,39,1,,,,1,39,119,32,2581.2417895830004,,,,,,,,,,,,,,,,top,,,,,,,,2581.22627683304,2586.3422713330365,2586.342436792038,2591.592090042017,2591.598470250028,2592.842046375037,2592.8438019170426,2593.825864250015,2593.8273773750407,2597.642767250014,mostlyred,FinalRedContrast,FinalGreenContrast,2597.6440297919908,2598.6595222500036,1,051926db,001,2026-05-19_10h28.58.807,priming,,2026.1.3,59.9448956503028,2026-05-19 10h28.59.119938 -0700,
GR_Congruent_RedCue_RedProbe_Top,GreenGaborBoth.png,RedGaborBoth.png,GreenGaborBoth.png,RedGaborDisappearTop.png,Red.mp3,red,top,120,40,1,,,,1,40,120,64,2598.675293667009,,,,,,,,,,,,,,,,top,,,,,,,,2598.659618375008,2600.6590074580163,2600.65917191701,2605.908968625008,2605.9155176249915,2607.1587688750005,2607.1600582920364,2608.092878083,2608.0937145000207,2612.6928064580425,mostlyred,FinalRedContrast,FinalGreenContrast,2612.694231875008,2614.092873042042,1,051926db,001,2026-05-19_10h28.58.807,priming,,2026.1.3,59.9448956503028,2026-05-19 10h28.59.119938 -0700,
GR_Congruent_RedCue_RedProbe_Bottom,GreenGaborBoth.png,RedGaborBoth.png,GreenGaborBoth.png,RedGaborDisappearBottom.png,Red.mp3,red,bottom,121,41,1,,,,1,41,121,57,2614.108669625013,,,,,,,,,,,,,,,,bottom,,,,,,,,2614.092967042001,2615.8258146250155,2615.82597837504,2621.0753876669914,2621.081771792029,2622.3254111669958,2622.3273030830314,2623.093001292029,2623.0938726669992,2624.276403708034,mostlyred,FinalRedContrast,FinalGreenContrast,2624.277118167025,2625.1596638330375,1,051926db,001,2026-05-19_10h28.58.807,priming,,2026.1.3,59.9448956503028,2026-05-19 10h28.59.119938 -0700,
GR_Incongruent_GreenCue_RedProbe_Top,GreenGaborBoth.png,RedGaborBoth.png,GreenGaborBoth.png,RedGaborDisappearTop.png,Green.mp3,green,top,122,42,1,,,,1,42,122,54,2625.1754750420223,,,,,,,,,,,,,,,,top,,,,,,,,2625.161535958003,2626.4425352500402,2626.4427015419933,2631.692239750002,2631.6986432500416,2632.9421208330314,2632.9441562080174,2633.5759326670086,2633.5774766250397,2634.993067625037,mostlygreen,FinalRedContrast,FinalGreenContrast,2634.994310583046,2636.4930129580316,1,051926db,001,2026-05-19_10h28.58.807,priming,,2026.1.3,59.9448956503028,2026-05-19 10h28.59.119938 -0700,
GR_Incongruent_RedCue_GreenProbe_Bottom,GreenGaborBoth.png,RedGaborBoth.png,GreenGaborDisappearBottom.png,RedGaborBoth.png,Red.mp3,red,bottom,123,43,1,,,,1,43,123,69,2636.5088419580134,,,,,,,,,,,,,,,,bottom,,,,,,,,2636.494635375042,2638.709217083,2638.709385082999,2643.9589269999997,2643.9652984580025,2645.208948208019,2645.2108933330164,2645.8930398750235,2645.8937856249977,2648.0930457499926,mostlygreen,FinalRedContrast,FinalGreenContrast,2648.094026875042,2649.576398208039,1,051926db,001,2026-05-19_10h28.58.807,priming,,2026.1.3,59.9448956503028,2026-05-19 10h28.59.119938 -0700,
GR_Congruent_RedCue_RedProbe_Bottom,GreenGaborBoth.png,RedGaborBoth.png,GreenGaborBoth.png,RedGaborDisappearBottom.png,Red.mp3,red,bottom,124,44,1,,,,1,44,124,17,2649.592065750039,,,,,,,,,,,,,,,,bottom,,,,,,,,2649.5764938330394,2650.809109750029,2650.809272500046,2656.059006708034,2656.065447208006,2657.3090286669903,2657.310280542006,2658.176098833035,2658.177138041996,2659.3932268749923,mostlyred,FinalRedContrast,FinalGreenContrast,2659.3942075420055,2660.5097895830404,1,051926db,001,2026-05-19_10h28.58.807,priming,,2026.1.3,59.9448956503028,2026-05-19 10h28.59.119938 -0700,
GR_Congruent_GreenCue_GreenProbe_Bottom,GreenGaborBoth.png,RedGaborBoth.png,GreenGaborDisappearBottom.png,RedGaborBoth.png,Green.mp3,green,bottom,125,45,1,,,,1,45,125,27,2660.5256147499895,,,,,,,,,,,,,,,,bottom,,,,,,,,2660.511655875016,2662.559284624993,2662.559451833018,2667.8088577080052,2667.8152355829952,2669.0590145420283,2669.0607170420117,2669.992702791991,2669.9943377920426,2671.8764869580045,evensplit,FinalRedContrast,FinalGreenContrast,2671.8775942079956,2673.026438083034,1,051926db,001,2026-05-19_10h28.58.807,priming,,2026.1.3,59.9448956503028,2026-05-19 10h28.59.119938 -0700,
GR_Congruent_RedCue_RedProbe_Top,GreenGaborBoth.png,RedGaborBoth.png,GreenGaborBoth.png,RedGaborDisappearTop.png,Red.mp3,red,top,126,46,1,,,,1,46,126,8,2673.0422300419887,,,,,,,,,,,,,,,,top,,,,,,,,2673.0280846250243,2674.4093076250283,2674.4094746670453,2679.6590092920233,2679.665466583043,2680.90905175003,2680.910338708025,2681.8093808750273,2681.8110405000043,2683.4597225420293,mostlyred,FinalRedContrast,FinalGreenContrast,2683.4610195000423,2685.109998833039,1,051926db,001,2026-05-19_10h28.58.807,priming,,2026.1.3,59.9448956503028,2026-05-19 10h28.59.119938 -0700,
GR_Congruent_GreenCue_GreenProbe_Top,GreenGaborBoth.png,RedGaborBoth.png,GreenGaborDisappearTop.png,RedGaborBoth.png,Green.mp3,green,top,127,47,1,,,,1,47,127,10,2685.1256357500097,,,,,,,,,,,,,,,,top,,,,,,,,2685.1119256250095,2692.30953316699,2692.309706250031,2697.5590989170014,2697.5655150419916,2698.809141875012,2698.810447124997,2699.6762401669985,2699.6778698330163,2701.6936554170097,mostlygreen,FinalRedContrast,FinalGreenContrast,2701.6939442920266,2703.1434150830028,1,051926db,001,2026-05-19_10h28.58.807,priming,,2026.1.3,59.9448956503028,2026-05-19 10h28.59.119938 -0700,
GR_Incongruent_RedCue_GreenProbe_Top,GreenGaborBoth.png,RedGaborBoth.png,GreenGaborDisappearTop.png,RedGaborBoth.png,Red.mp3,red,top,128,48,1,,,,1,48,128,36,2703.159027250018,,,,,,,,,,,,,,,,top,,,,,,,,2703.1449843330192,2704.7593743749894,2704.759539416991,2710.009132542007,2710.0156621250208,2711.259202999994,2711.2608670830377,2712.876185083005,2712.8776931249886,2714.3266281670076,mostlygreen,FinalRedContrast,FinalGreenContrast,2714.3278910000226,2715.543305875035,1,051926db,001,2026-05-19_10h28.58.807,priming,,2026.1.3,59.9448956503028,2026-05-19 10h28.59.119938 -0700,
GR_Congruent_GreenCue_GreenProbe_Bottom,GreenGaborBoth.png,RedGaborBoth.png,GreenGaborDisappearBottom.png,RedGaborBoth.png,Green.mp3,green,bottom,129,49,1,,,,1,49,129,67,2715.5590767920366,,,,,,,,,,,,,,,,bottom,,,,,,,,2715.545120833034,2717.1927740829997,2717.1929374579922,2722.4424762920244,2722.4490141670103,2723.6924831250217,2723.6944235420087,2724.726334667008,2724.727064000035,2726.2601358329994,evensplit,FinalRedContrast,FinalGreenContrast,2726.261234042002,2727.9767894170363,1,051926db,001,2026-05-19_10h28.58.807,priming,,2026.1.3,59.9448956503028,2026-05-19 10h28.59.119938 -0700,
GR_Congruent_GreenCue_GreenProbe_Bottom,GreenGaborBoth.png,RedGaborBoth.png,GreenGaborDisappearBottom.png,RedGaborBoth.png,Green.mp3,green,bottom,130,50,1,,,,1,50,130,3,2727.9924484580406,,,,,,,,,,,,,,,,bottom,,,,,,,,2727.9768937500194,2730.4261732500163,2730.426333792042,2735.6759196670027,2735.6823552080314,2736.9259254580247,2736.9272472080193,2738.276698917034,2738.278005458007,2740.1767427500454,mostlygreen,FinalRedContrast,FinalGreenContrast,2740.177928875026,2741.7101021670387,1,051926db,001,2026-05-19_10h28.58.807,priming,,2026.1.3,59.9448956503028,2026-05-19 10h28.59.119938 -0700,
GG_non_riv_catch_GreenCue_GreenProbe_Bottom,GreenGaborBoth.png,Blank.png,GreenGaborDisappearBottom.png,Blank.png,Green.mp3,green,bottom,131,51,1,,,,1,51,131,79,2741.7258276250213,,,,,,,,,,,,,,,,bottom,,,,,,,,2741.710203166993,2747.742858875019,2747.7430217500078,2752.9926047920017,2752.9988547920366,2754.2426222920185,2754.2440522499965,2755.609733875026,2755.611209042021,2757.276909875043,allgreen,FinalRedContrast,FinalGreenContrast,2757.277595666994,2758.760233458015,1,051926db,001,2026-05-19_10h28.58.807,priming,,2026.1.3,59.9448956503028,2026-05-19 10h28.59.119938 -0700,
GR_Incongruent_GreenCue_RedProbe_Bottom,GreenGaborBoth.png,RedGaborBoth.png,GreenGaborBoth.png,RedGaborDisappearBottom.png,Green.mp3,green,bottom,132,52,1,,,,1,52,132,23,2758.7760460420395,,,,,,,,,,,,,,,,bottom,,,,,,,,2758.760329667013,2762.0096784580383,2762.0098417080007,2767.2592757500242,2767.2657211250043,2768.509303208033,2768.5110443329904,2770.476474917028,2770.478091375029,2772.1768051250256,evensplit,FinalRedContrast,FinalGreenContrast,2772.1780774170184,2773.660231542017,1,051926db,001,2026-05-19_10h28.58.807,priming,,2026.1.3,59.9448956503028,2026-05-19 10h28.59.119938 -0700,
