label,LstartingStim,RstartingStim,LvisualStim,RvisualStim,audioCue,visualCue,probe_loc,thisN,thisTrialN,thisRepN,staircase.thisTrialN,staircase.stepSize,staircase.intensity,trials.thisRepN,trials.thisTrialN,trials.thisN,trials.thisIndex,thisRow.t,notes,piloting,stim offset,continue_resp.keys,continue_resp.rt,continue_resp.duration,fixation.started,fixation.stopped,greenContrast,redContrast,adjusted_contrast.started,adjusted_contrast.stopped,staircase_response.started,staircase_response.stopped,stair_response,probe_response,staircase.response,prevTrial,isRed,isReversal,cumReversal,contrastArray,contrastAverage,start_trial.started,start_trial.stopped,cue.started,cue.stopped,probe.started,probe.stopped,probe_response.started,probe_response.stopped,subjective_response.started,subjective_response.stopped,subj_response,RedContrast,GreenContrast,vividness_response.started,vividness_response.stopped,vivid_response,participant,session,date,expName,expVersion,psychopyVersion,frameRate,expStart,
,,,,,,,,,,,,,,,,,,,,False,0.33199999999999996,,,,,,,,,,,,,,,,,,,,,,,,,,,,,,,,,,,,,051926gm,001,2026-05-19_12h15.54.880,priming,,2026.1.3,60.005910571312505,2026-05-19 12h15.55.199398 -0700,
,,,,,,,,,,,,,,,,,,,,,,space,21.985561957000755,None,,,,,,,,,,,,,,,,,,,,,,,,,,,,,,,,,,051926gm,001,2026-05-19_12h15.54.880,priming,,2026.1.3,60.005910571312505,2026-05-19 12h15.55.199398 -0700,
,,,,,,,,,,,0,0.2,0.5,,,,,34.050841375021264,,,,,,,34.03507295798045,35.034276166989,0.5,0.5,35.041407666984014,36.784367082989775,36.78949787496822,38.46832066698698,mostlyred,red,1,1000,1,0,0,[],0,,,,,,,,,,,,,,,,,051926gm,001,2026-05-19_12h15.54.880,priming,,2026.1.3,60.005910571312505,2026-05-19 12h15.55.199398 -0700,
,,,,,,,,,,,1,0.1,0.3,,,,,38.48430016700877,,,,,,,38.468574541970156,39.467696791980416,0.7,0.3,39.47123612498399,41.21763704199111,41.219005916966125,44.60176412499277,mostlygreen,green,0,1,0,1,1,[],0,,,,,,,,,,,,,,,,,051926gm,001,2026-05-19_12h15.54.880,priming,,2026.1.3,60.005910571312505,2026-05-19 12h15.55.199398 -0700,
,,,,,,,,,,,2,0.1,0.4,,,,,44.617549999966286,,,,,,,44.60208287497517,45.60094799997751,0.6,0.4,45.604421750002075,47.35087345796637,47.35244587500347,48.60168341698591,mostlyred,red,1,0,1,1,2,[],0,,,,,,,,,,,,,,,,,051926gm,001,2026-05-19_12h15.54.880,priming,,2026.1.3,60.005910571312505,2026-05-19 12h15.55.199398 -0700,
,,,,,,,,,,,3,0.1,0.30000000000000004,,,,,48.617652542016,,,,,,,48.60193150001578,49.601128791982774,0.7,0.30000000000000004,49.60453629196854,51.351106374990195,51.352306250017136,53.95180908299517,mostlyred,red,1,1,1,0,2,[],0,,,,,,,,,,,,,,,,,051926gm,001,2026-05-19_12h15.54.880,priming,,2026.1.3,60.005910571312505,2026-05-19 12h15.55.199398 -0700,
,,,,,,,,,,,4,0.05,0.20000000000000004,,,,,53.96772462502122,,,,,,,53.95207720797043,54.95113733300241,0.7999999999999999,0.20000000000000004,54.9546372499899,56.70108733297093,56.702845874999184,58.31846287497319,allgreen,green,0,1,0,1,3,[],0,,,,,,,,,,,,,,,,,051926gm,001,2026-05-19_12h15.54.880,priming,,2026.1.3,60.005910571312505,2026-05-19 12h15.55.199398 -0700,
,,,,,,,,,,,5,0.05,0.25000000000000006,,,,,58.33435091696447,,,,,,,58.31870658299886,59.3177496669814,0.75,0.25000000000000006,59.3212225830066,61.06777404202148,61.069199250021484,62.251823291997425,allgreen,green,0,0,0,0,3,[],0,,,,,,,,,,,,,,,,,051926gm,001,2026-05-19_12h15.54.880,priming,,2026.1.3,60.005910571312505,2026-05-19 12h15.55.199398 -0700,
,,,,,,,,,,,6,0.05,0.30000000000000004,,,,,62.26769533299375,,,,,,,62.25209770799847,63.25114208296873,0.7,0.30000000000000004,63.25461445801193,65.00111883296631,65.0027371670003,66.9851312499959,allgreen,green,0,0,0,0,3,[],0,,,,,,,,,,,,,,,,,051926gm,001,2026-05-19_12h15.54.880,priming,,2026.1.3,60.005910571312505,2026-05-19 12h15.55.199398 -0700,
,,,,,,,,,,,7,0.05,0.35000000000000003,,,,,67.00112670799717,,,,,,,66.98543470801087,67.98445370799163,0.6499999999999999,0.35000000000000003,67.98783241701312,69.73440454201773,69.73636420798721,71.56842658302048,mostlygreen,green,0,0,0,0,3,[],0,,,,,,,,,,,,,,,,,051926gm,001,2026-05-19_12h15.54.880,priming,,2026.1.3,60.005910571312505,2026-05-19 12h15.55.199398 -0700,
,,,,,,,,,,,8,0.05,0.4,,,,,71.58437254198361,,,,,,,71.56867158296518,72.56773529201746,0.6,0.4,72.57117570796981,74.31782720796764,74.31941416696645,75.15187020797748,mostlyred,red,1,0,1,1,4,[],0,,,,,,,,,,,,,,,,,051926gm,001,2026-05-19_12h15.54.880,priming,,2026.1.3,60.005910571312505,2026-05-19 12h15.55.199398 -0700,
,,,,,,,,,,,9,0.05,0.35000000000000003,,,,,75.16767183301272,,,,,,,75.15212137496565,76.15113037498668,0.6499999999999999,0.35000000000000003,76.15464099997189,77.9012522919802,77.90251712501049,79.41854966699611,mostlyred,red,1,1,1,0,4,[],0,,,,,,,,,,,,,,,,,051926gm,001,2026-05-19_12h15.54.880,priming,,2026.1.3,60.005910571312505,2026-05-19 12h15.55.199398 -0700,
,,,,,,,,,,,10,0.025,0.30000000000000004,,,,,79.43451325001661,,,,,,,79.4187914999784,80.41789029201027,0.7,0.30000000000000004,80.42145320802229,82.16796258301474,82.1696265420178,83.83522029197775,mostlygreen,green,0,1,0,1,5,[],0,,,,,,,,,,,,,,,,,051926gm,001,2026-05-19_12h15.54.880,priming,,2026.1.3,60.005910571312505,2026-05-19 12h15.55.199398 -0700,
,,,,,,,,,,,11,0.025,0.32500000000000007,,,,,83.85107191698626,,,,,,,83.83546895801555,84.83466387499357,0.6749999999999999,0.32500000000000007,84.83813508297317,86.58460674999515,86.58627108298242,87.73527987499256,mostlyred,red,1,0,1,1,6,[0.32500000000000007],0.32500000000000007,,,,,,,,,,,,,,,,,051926gm,001,2026-05-19_12h15.54.880,priming,,2026.1.3,60.005910571312505,2026-05-19 12h15.55.199398 -0700,
,,,,,,,,,,,12,0.025,0.30000000000000004,,,,,87.75112741696648,,,,,,,87.73553016700316,88.73454645799939,0.7,0.30000000000000004,88.73803491698345,90.48458687501261,90.48583229200449,92.7686327919946,mostlygreen,green,0,1,0,1,7,"[0.32500000000000007, 0.30000000000000004]",0.31250000000000006,,,,,,,,,,,,,,,,,051926gm,001,2026-05-19_12h15.54.880,priming,,2026.1.3,60.005910571312505,2026-05-19 12h15.55.199398 -0700,
,,,,,,,,,,,13,0.025,0.32500000000000007,,,,,92.78450479201274,,,,,,,92.76888212497579,93.76779299997725,0.6749999999999999,0.32500000000000007,93.77125166699989,95.51784350001253,95.51962104201084,96.9186227080063,mostlyred,red,1,0,1,1,8,"[0.32500000000000007, 0.30000000000000004, 0.32500000000000007]",0.3166666666666667,,,,,,,,,,,,,,,,,051926gm,001,2026-05-19_12h15.54.880,priming,,2026.1.3,60.005910571312505,2026-05-19 12h15.55.199398 -0700,
,,,,,,,,,,,14,0.025,0.30000000000000004,,,,,96.93444316700334,,,,,,,96.91886845801491,97.91785399999935,0.7,0.30000000000000004,97.92135304200929,99.66790179198142,99.6695380830206,100.7019639579812,mostlyred,red,1,1,1,0,8,"[0.32500000000000007, 0.30000000000000004, 0.32500000000000007]",0.3166666666666667,,,,,,,,,,,,,,,,,051926gm,001,2026-05-19_12h15.54.880,priming,,2026.1.3,60.005910571312505,2026-05-19 12h15.55.199398 -0700,
,,,,,,,,,,,15,0.025,0.275,,,,,100.71783033298561,,,,,,,100.70221166696865,101.70113008300541,0.725,0.275,101.70457887498196,103.45125637500314,103.45249429199612,104.83530204201816,mostlygreen,green,0,1,0,1,9,"[0.32500000000000007, 0.30000000000000004, 0.32500000000000007, 0.275]",0.30625,,,,,,,,,,,,,,,,,051926gm,001,2026-05-19_12h15.54.880,priming,,2026.1.3,60.005910571312505,2026-05-19 12h15.55.199398 -0700,
,,,,,,,,,,,16,0.025,0.30000000000000004,,,,,104.85113008297049,,,,,,,104.83555324998451,105.83477170800325,0.7,0.30000000000000004,105.83826483297162,107.58470204198966,107.5858765419689,108.61867695796536,mostlyred,red,1,0,1,1,10,"[0.32500000000000007, 0.30000000000000004, 0.32500000000000007, 0.275, 0.30000000000000004]",0.30500000000000005,,,,,,,,,,,,,,,,,051926gm,001,2026-05-19_12h15.54.880,priming,,2026.1.3,60.005910571312505,2026-05-19 12h15.55.199398 -0700,
,,,,,,,,,,,17,0.025,0.275,,,,,108.63466170796892,,,,,,,108.61892458301736,109.61809616698883,0.725,0.275,109.62156091700308,111.36799862497719,111.36933037498966,112.73540762497578,mostlygreen,green,0,1,0,1,11,"[0.32500000000000007, 0.30000000000000004, 0.32500000000000007, 0.275, 0.30000000000000004, 0.275]",0.30000000000000004,,,,,,,,,,,,,,,,,051926gm,001,2026-05-19_12h15.54.880,priming,,2026.1.3,60.005910571312505,2026-05-19 12h15.55.199398 -0700,
,,,,,,,,,,,18,0.025,0.30000000000000004,,,,,112.7513139169896,,,,,,,112.73569120798493,113.73465837497497,0.7,0.30000000000000004,113.73819295800058,115.48469312500674,115.48631554201711,117.06872529198881,mostlyred,red,1,0,1,1,12,"[0.32500000000000007, 0.30000000000000004, 0.32500000000000007, 0.275, 0.30000000000000004, 0.275, 0.30000000000000004]",0.3000000000000001,,,,,,,,,,,,,,,,,051926gm,001,2026-05-19_12h15.54.880,priming,,2026.1.3,60.005910571312505,2026-05-19 12h15.55.199398 -0700,
,,,,,,,,,,,19,0.025,0.275,,,,,117.08464491699124,,,,,,,117.06897491699783,118.06791662500473,0.725,0.275,118.07124795799609,119.81810766697163,119.81936379201943,120.76873120799428,mostlyred,red,1,1,1,0,12,"[0.32500000000000007, 0.30000000000000004, 0.32500000000000007, 0.275, 0.30000000000000004, 0.275, 0.30000000000000004]",0.3000000000000001,,,,,,,,,,,,,,,,,051926gm,001,2026-05-19_12h15.54.880,priming,,2026.1.3,60.005910571312505,2026-05-19 12h15.55.199398 -0700,
,,,,,,,,,,,20,0.025,0.25,,,,,120.78465195797617,,,,,,,120.76905162498588,121.76799816696439,0.75,0.25,121.77138770796591,123.51796108298004,123.51962020801147,124.61871908296598,mostlyred,red,1,1,1,0,12,"[0.32500000000000007, 0.30000000000000004, 0.32500000000000007, 0.275, 0.30000000000000004, 0.275, 0.30000000000000004]",0.3000000000000001,,,,,,,,,,,,,,,,,051926gm,001,2026-05-19_12h15.54.880,priming,,2026.1.3,60.005910571312505,2026-05-19 12h15.55.199398 -0700,
,,,,,,,,,,,21,0.025,0.225,,,,,124.63462579197949,,,,,,,124.61896216700552,125.6179657499888,0.775,0.225,125.62137733300915,127.3680194169865,127.36952204199042,128.3187947080005,mostlyred,red,1,1,1,0,12,"[0.32500000000000007, 0.30000000000000004, 0.32500000000000007, 0.275, 0.30000000000000004, 0.275, 0.30000000000000004]",0.3000000000000001,,,,,,,,,,,,,,,,,051926gm,001,2026-05-19_12h15.54.880,priming,,2026.1.3,60.005910571312505,2026-05-19 12h15.55.199398 -0700,
,,,,,,,,,,,22,0.025,0.2,,,,,128.33453241700772,,,,,,,128.31904758297605,129.31799704197329,0.8,0.2,129.32145741698332,131.06805270799669,131.06969787500566,131.98531583300792,allgreen,green,0,1,0,1,13,"[0.32500000000000007, 0.30000000000000004, 0.32500000000000007, 0.275, 0.30000000000000004, 0.275, 0.30000000000000004, 0.2]",0.2875000000000001,,,,,,,,,,,,,,,,,051926gm,001,2026-05-19_12h15.54.880,priming,,2026.1.3,60.005910571312505,2026-05-19 12h15.55.199398 -0700,
,,,,,,,,,,,23,0.025,0.225,,,,,132.0011915829964,,,,,,,131.9855631670216,132.98464916698867,0.775,0.225,132.9880128329969,134.73471608298132,134.73630837496603,135.56875833298545,allgreen,green,0,0,0,0,13,"[0.32500000000000007, 0.30000000000000004, 0.32500000000000007, 0.275, 0.30000000000000004, 0.275, 0.30000000000000004, 0.2]",0.2875000000000001,,,,,,,,,,,,,,,,,051926gm,001,2026-05-19_12h15.54.880,priming,,2026.1.3,60.005910571312505,2026-05-19 12h15.55.199398 -0700,
,,,,,,,,,,,24,0.025,0.25,,,,,135.5846056669834,,,,,,,135.56900349998614,136.56817879201844,0.75,0.25,136.57158933300525,138.31818529200973,138.31939691700973,140.21892933297204,mostlyred,red,1,0,1,1,14,"[0.32500000000000007, 0.30000000000000004, 0.32500000000000007, 0.275, 0.30000000000000004, 0.275, 0.30000000000000004, 0.2, 0.25]",0.28333333333333344,,,,,,,,,,,,,,,,,051926gm,001,2026-05-19_12h15.54.880,priming,,2026.1.3,60.005910571312505,2026-05-19 12h15.55.199398 -0700,
,,,,,,,,,,,25,0.025,0.225,,,,,140.23477245797403,,,,,,,140.21921183296945,141.21816295798635,0.775,0.225,141.2217604169855,142.96814641699893,142.9697599579813,144.38557179196505,allgreen,green,0,1,0,1,15,"[0.32500000000000007, 0.30000000000000004, 0.32500000000000007, 0.275, 0.30000000000000004, 0.275, 0.30000000000000004, 0.2, 0.25, 0.225]",0.2775000000000001,,,,,,,,,,,,,,,,,051926gm,001,2026-05-19_12h15.54.880,priming,,2026.1.3,60.005910571312505,2026-05-19 12h15.55.199398 -0700,
,,,,,,,,,,,26,0.025,0.25,,,,,144.40146404202096,,,,,,,144.38589891698211,145.3848232079763,0.75,0.25,145.38827399996808,147.13481775001856,147.13610945799155,148.48550812498434,mostlyred,red,1,0,1,1,16,"[0.32500000000000007, 0.30000000000000004, 0.32500000000000007, 0.275, 0.30000000000000004, 0.275, 0.30000000000000004, 0.2, 0.25, 0.225, 0.25]",0.2750000000000001,,,,,,,,,,,,,,,,,051926gm,001,2026-05-19_12h15.54.880,priming,,2026.1.3,60.005910571312505,2026-05-19 12h15.55.199398 -0700,
,,,,,,,,,,,27,0.025,0.225,,,,,148.5013922919752,,,,,,,148.48575754201738,149.48483295796905,0.775,0.225,149.48824970796704,151.2347917080042,151.2365216250182,153.61885274999077,mostlyred,red,1,1,1,0,16,"[0.32500000000000007, 0.30000000000000004, 0.32500000000000007, 0.275, 0.30000000000000004, 0.275, 0.30000000000000004, 0.2, 0.25, 0.225, 0.25]",0.2750000000000001,,,,,,,,,,,,,,,,,051926gm,001,2026-05-19_12h15.54.880,priming,,2026.1.3,60.005910571312505,2026-05-19 12h15.55.199398 -0700,
,,,,,,,,,,,28,0.025,0.2,,,,,153.634702750016,,,,,,,153.6191706249956,154.61811383301392,0.8,0.2,154.62158237496624,156.36817429197254,156.36952737497631,156.9520945000113,mostlyred,red,1,1,1,0,16,"[0.32500000000000007, 0.30000000000000004, 0.32500000000000007, 0.275, 0.30000000000000004, 0.275, 0.30000000000000004, 0.2, 0.25, 0.225, 0.25]",0.2750000000000001,,,,,,,,,,,,,,,,,051926gm,001,2026-05-19_12h15.54.880,priming,,2026.1.3,60.005910571312505,2026-05-19 12h15.55.199398 -0700,
,,,,,,,,,,,29,0.025,0.17500000000000002,,,,,156.96805220801616,,,,,,,156.95234233298106,157.95136449998245,0.825,0.17500000000000002,157.9547840830055,159.70158175000688,159.70309762499528,160.56891245796578,allgreen,green,0,1,0,1,17,"[0.32500000000000007, 0.30000000000000004, 0.32500000000000007, 0.275, 0.30000000000000004, 0.275, 0.30000000000000004, 0.2, 0.25, 0.225, 0.25, 0.17500000000000002]",0.2666666666666667,,,,,,,,,,,,,,,,,051926gm,001,2026-05-19_12h15.54.880,priming,,2026.1.3,60.005910571312505,2026-05-19 12h15.55.199398 -0700,
,,,,,,,,,,,30,0.025,0.2,,,,,160.58468699996592,,,,,,,160.56924395798706,161.5681521249935,0.8,0.2,161.57154479197925,163.31818220799323,163.3201413329807,165.15213916701032,allgreen,green,0,0,0,0,17,"[0.32500000000000007, 0.30000000000000004, 0.32500000000000007, 0.275, 0.30000000000000004, 0.275, 0.30000000000000004, 0.2, 0.25, 0.225, 0.25, 0.17500000000000002]",0.2666666666666667,,,,,,,,,,,,,,,,,051926gm,001,2026-05-19_12h15.54.880,priming,,2026.1.3,60.005910571312505,2026-05-19 12h15.55.199398 -0700,
,,,,,,,,,,,31,0.025,0.225,,,,,165.168100083014,,,,,,,165.15238891699119,166.15161316702142,0.775,0.225,166.15503220801475,167.90159320802195,167.90327004197752,168.7190184170031,mostlyred,red,1,0,1,1,18,"[0.32500000000000007, 0.30000000000000004, 0.32500000000000007, 0.275, 0.30000000000000004, 0.275, 0.30000000000000004, 0.2, 0.25, 0.225, 0.25, 0.17500000000000002, 0.225]",0.2634615384615385,,,,,,,,,,,,,,,,,051926gm,001,2026-05-19_12h15.54.880,priming,,2026.1.3,60.005910571312505,2026-05-19 12h15.55.199398 -0700,
,,,,,,,,,,,32,0.025,0.2,,,,,168.73491900000954,,,,,,,168.71926854201593,169.71833270799834,0.8,0.2,169.72175795800285,171.46834212500835,171.4697538749897,172.11902995797573,mostlyred,red,1,1,1,0,18,"[0.32500000000000007, 0.30000000000000004, 0.32500000000000007, 0.275, 0.30000000000000004, 0.275, 0.30000000000000004, 0.2, 0.25, 0.225, 0.25, 0.17500000000000002, 0.225]",0.2634615384615385,,,,,,,,,,,,,,,,,051926gm,001,2026-05-19_12h15.54.880,priming,,2026.1.3,60.005910571312505,2026-05-19 12h15.55.199398 -0700,
,,,,,,,,,,,33,0.025,0.17500000000000002,,,,,172.13484050001716,,,,,,,172.11927720799576,173.118243874982,0.825,0.17500000000000002,173.1216652499861,174.8682372919866,174.8700030419859,175.60229812498437,mostlygreen,green,0,1,0,1,19,"[0.32500000000000007, 0.30000000000000004, 0.32500000000000007, 0.275, 0.30000000000000004, 0.275, 0.30000000000000004, 0.2, 0.25, 0.225, 0.25, 0.17500000000000002, 0.225, 0.17500000000000002]",0.2571428571428572,,,,,,,,,,,,,,,,,051926gm,001,2026-05-19_12h15.54.880,priming,,2026.1.3,60.005910571312505,2026-05-19 12h15.55.199398 -0700,
,,,,,,,,,,,34,0.025,0.2,,,,,175.61818470800063,,,,,,,175.60254458297277,176.60150558297755,0.8,0.2,176.6049097920186,178.35161537496606,178.35310558299534,180.0856306250207,mostlyred,red,1,0,1,1,20,"[0.32500000000000007, 0.30000000000000004, 0.32500000000000007, 0.275, 0.30000000000000004, 0.275, 0.30000000000000004, 0.2, 0.25, 0.225, 0.25, 0.17500000000000002, 0.225, 0.17500000000000002, 0.2]",0.25333333333333335,,,,,,,,,,,,,,,,,051926gm,001,2026-05-19_12h15.54.880,priming,,2026.1.3,60.005910571312505,2026-05-19 12h15.55.199398 -0700,
,,,,,,,,,,,35,0.025,0.17500000000000002,,,,,180.1015245830058,,,,,,,180.08588420797605,181.0849357919651,0.825,0.17500000000000002,181.0883305419702,182.83498045802116,182.83656370796962,184.1690226669889,allgreen,green,0,1,0,1,21,"[0.30000000000000004, 0.32500000000000007, 0.275, 0.30000000000000004, 0.275, 0.30000000000000004, 0.2, 0.25, 0.225, 0.25, 0.17500000000000002, 0.225, 0.17500000000000002, 0.2, 0.17500000000000002]",0.24333333333333332,,,,,,,,,,,,,,,,,051926gm,001,2026-05-19_12h15.54.880,priming,,2026.1.3,60.005910571312505,2026-05-19 12h15.55.199398 -0700,
,,,,,,,,,,,36,0.025,0.2,,,,,184.18478358298307,,,,,,,184.16927295800997,185.16826029197546,0.8,0.2,185.1716963329818,186.91830558300717,186.91996241698507,188.43564224999864,mostlyred,red,1,0,1,1,22,"[0.32500000000000007, 0.275, 0.30000000000000004, 0.275, 0.30000000000000004, 0.2, 0.25, 0.225, 0.25, 0.17500000000000002, 0.225, 0.17500000000000002, 0.2, 0.17500000000000002, 0.2]",0.2366666666666667,,,,,,,,,,,,,,,,,051926gm,001,2026-05-19_12h15.54.880,priming,,2026.1.3,60.005910571312505,2026-05-19 12h15.55.199398 -0700,
,,,,,,,,,,,37,0.025,0.17500000000000002,,,,,188.45151137496578,,,,,,,188.43589254200924,189.43493879196467,0.825,0.17500000000000002,189.43835358298384,191.18500045797555,191.18714241700945,193.26898383296793,allgreen,green,0,1,0,1,23,"[0.275, 0.30000000000000004, 0.275, 0.30000000000000004, 0.2, 0.25, 0.225, 0.25, 0.17500000000000002, 0.225, 0.17500000000000002, 0.2, 0.17500000000000002, 0.2, 0.17500000000000002]",0.22666666666666666,,,,,,,,,,,,,,,,,051926gm,001,2026-05-19_12h15.54.880,priming,,2026.1.3,60.005910571312505,2026-05-19 12h15.55.199398 -0700,
,,,,,,,,,,,38,0.025,0.2,,,,,193.28483154199785,,,,,,,193.26923270797124,194.2682294580154,0.8,0.2,194.27167074999306,196.01831245800713,196.01980108302087,202.70277670799987,mostlyred,red,1,0,1,1,24,"[0.30000000000000004, 0.275, 0.30000000000000004, 0.2, 0.25, 0.225, 0.25, 0.17500000000000002, 0.225, 0.17500000000000002, 0.2, 0.17500000000000002, 0.2, 0.17500000000000002, 0.2]",0.22166666666666668,,,,,,,,,,,,,,,,,051926gm,001,2026-05-19_12h15.54.880,priming,,2026.1.3,60.005910571312505,2026-05-19 12h15.55.199398 -0700,
,,,,,,,,,,,39,0.025,0.17500000000000002,,,,,202.71834625001065,,,,,,,202.70302841701778,203.70175000000745,0.825,0.17500000000000002,203.70519224996679,205.4516930420068,205.4532809999655,206.86908224999206,mostlyred,red,1,1,1,0,24,"[0.30000000000000004, 0.275, 0.30000000000000004, 0.2, 0.25, 0.225, 0.25, 0.17500000000000002, 0.225, 0.17500000000000002, 0.2, 0.17500000000000002, 0.2, 0.17500000000000002, 0.2]",0.22166666666666668,,,,,,,,,,,,,,,,,051926gm,001,2026-05-19_12h15.54.880,priming,,2026.1.3,60.005910571312505,2026-05-19 12h15.55.199398 -0700,
,,,,,,,,,,,,,,,,,,,,,,space,53.10175495798467,None,,,,,,,,,,,,,,,,,,,,,,,,,,,,,,,,,,051926gm,001,2026-05-19_12h15.54.880,priming,,2026.1.3,60.005910571312505,2026-05-19 12h15.55.199398 -0700,
GR_Congruent_RedCue_RedProbe_Top,GreenGaborBoth.png,RedGaborBoth.png,GreenGaborBoth.png,RedGaborDisappearTop.png,Red.mp3,red,top,0,0,0,,,,0,0,0,16,260.05206791701494,,,,,,,,,,,,,,,,bottom,,,,,,,,260.0446775419987,261.2022606669925,261.2024252919946,266.4520423329668,266.460847291979,267.70199279201915,267.7032973750029,272.4861459999811,272.4869390829699,277.80278533301316,mostlyred,FinalRedContrast,FinalGreenContrast,277.8040856249863,282.0528248329647,3,051926gm,001,2026-05-19_12h15.54.880,priming,,2026.1.3,60.005910571312505,2026-05-19 12h15.55.199398 -0700,
GR_Congruent_RedCue_RedProbe_Top,GreenGaborBoth.png,RedGaborBoth.png,GreenGaborBoth.png,RedGaborDisappearTop.png,Red.mp3,red,top,1,1,0,,,,0,1,1,48,282.0685915829963,,,,,,,,,,,,,,,,top,,,,,,,,282.0529287920217,324.80258187500294,324.80274779198226,330.05230129201664,330.05871499999193,331.3022697499837,331.30399524996756,334.6193275419646,334.62079541699495,341.1198255000054,evensplit,FinalRedContrast,FinalGreenContrast,341.1201331670163,344.23641825001687,4,051926gm,001,2026-05-19_12h15.54.880,priming,,2026.1.3,60.005910571312505,2026-05-19 12h15.55.199398 -0700,
GR_Congruent_RedCue_RedProbe_Top,GreenGaborBoth.png,RedGaborBoth.png,GreenGaborBoth.png,RedGaborDisappearTop.png,Red.mp3,red,top,2,2,0,,,,0,2,2,64,344.2523009169963,,,,,,,,,,,,,,,,bottom,,,,,,,,344.23651395802153,345.25260333297774,345.25276629201835,350.5021942919702,350.5086059169844,351.7523659580038,351.75419224996585,353.386164208001,353.3874459170038,359.0531666249735,mostlyred,FinalRedContrast,FinalGreenContrast,359.0542529170052,362.5032384999795,5,051926gm,001,2026-05-19_12h15.54.880,priming,,2026.1.3,60.005910571312505,2026-05-19 12h15.55.199398 -0700,
RR_non_riv_catch_GreenCue_RedProbe_Top,Blank.png,RedGaborBoth.png,Blank.png,RedGaborDisappearTop.png,Green.mp3,green,top,3,3,0,,,,0,3,3,74,362.518995374965,,,,,,,,,,,,,,,,top,,,,,,,,362.50557945796754,363.35268599999836,363.35285387496697,368.6025286670192,368.6094862080063,369.85240520798834,369.8538055419922,370.96946574997855,370.97111074998975,371.9699621669715,allred,FinalRedContrast,FinalGreenContrast,371.9706774579827,374.2199307080009,5,051926gm,001,2026-05-19_12h15.54.880,priming,,2026.1.3,60.005910571312505,2026-05-19 12h15.55.199398 -0700,
GR_Congruent_RedCue_RedProbe_Top,GreenGaborBoth.png,RedGaborBoth.png,GreenGaborBoth.png,RedGaborDisappearTop.png,Red.mp3,red,top,4,4,0,,,,0,4,4,8,374.23563195799943,,,,,,,,,,,,,,,,top,,,,,,,,374.2215280829696,374.95268833299633,374.95285208302084,380.2024703749921,380.2087747500045,381.45242641697405,381.45400058297673,382.65292062499793,382.6546083330177,385.786643792002,mostlyred,FinalRedContrast,FinalGreenContrast,385.78782612498617,388.0367073749658,5,051926gm,001,2026-05-19_12h15.54.880,priming,,2026.1.3,60.005910571312505,2026-05-19 12h15.55.199398 -0700,
GR_Incongruent_GreenCue_RedProbe_Top,GreenGaborBoth.png,RedGaborBoth.png,GreenGaborBoth.png,RedGaborDisappearTop.png,Green.mp3,green,top,5,5,0,,,,0,5,5,6,388.0524415419786,,,,,,,,,,,,,,,,top,,,,,,,,388.03854479198344,388.7028410420171,388.70300341700204,393.9524763749796,393.9587565420079,395.202531332965,395.2040031250217,396.5196720419917,396.52102741698036,398.5866557919653,mostlyred,FinalRedContrast,FinalGreenContrast,398.5878642919706,400.5033415830112,5,051926gm,001,2026-05-19_12h15.54.880,priming,,2026.1.3,60.005910571312505,2026-05-19 12h15.55.199398 -0700,
GR_Incongruent_GreenCue_RedProbe_Bottom,GreenGaborBoth.png,RedGaborBoth.png,GreenGaborBoth.png,RedGaborDisappearBottom.png,Green.mp3,green,bottom,6,6,0,,,,0,6,6,39,400.5191058329656,,,,,,,,,,,,,,,,bottom,,,,,,,,400.5034380829893,401.2697656250093,401.2699687079876,406.5191218749969,406.5272199169849,407.76917029201286,407.7709134580218,409.00294045801274,409.0044963330147,410.186695958022,mostlyred,FinalRedContrast,FinalGreenContrast,410.1879588330048,413.0866031249752,4,051926gm,001,2026-05-19_12h15.54.880,priming,,2026.1.3,60.005910571312505,2026-05-19 12h15.55.199398 -0700,
GR_Congruent_GreenCue_GreenProbe_Top,GreenGaborBoth.png,RedGaborBoth.png,GreenGaborDisappearTop.png,RedGaborBoth.png,Green.mp3,green,top,7,7,0,,,,0,7,7,58,413.1024273330113,,,,,,,,,,,,,,,,top,,,,,,,,413.0866990829818,413.736339916999,413.73650262498995,418.9860186249716,418.9935444169678,420.2359849169734,420.23762237501796,421.96973437501583,421.9711573329987,423.4701011250145,mostlygreen,FinalRedContrast,FinalGreenContrast,423.4708388330182,425.0705681249965,4,051926gm,001,2026-05-19_12h15.54.880,priming,,2026.1.3,60.005910571312505,2026-05-19 12h15.55.199398 -0700,
GR_Congruent_GreenCue_GreenProbe_Bottom,GreenGaborBoth.png,RedGaborBoth.png,GreenGaborDisappearBottom.png,RedGaborBoth.png,Green.mp3,green,bottom,8,8,0,,,,0,8,8,27,425.08595187502215,,,,,,,,,,,,,,,,bottom,,,,,,,,425.0706767499796,425.5529397079954,425.5531099580112,430.80270070797997,430.81060475000413,432.05260291701416,432.0542908749776,434.47010029200464,434.4706737080123,436.37017866701353,evensplit,FinalRedContrast,FinalGreenContrast,436.3708044170053,440.35353537497576,4,051926gm,001,2026-05-19_12h15.54.880,priming,,2026.1.3,60.005910571312505,2026-05-19 12h15.55.199398 -0700,
GR_Incongruent_GreenCue_RedProbe_Bottom,GreenGaborBoth.png,RedGaborBoth.png,GreenGaborBoth.png,RedGaborDisappearBottom.png,Green.mp3,green,bottom,9,9,0,,,,0,9,9,55,440.3691980000003,,,,,,,,,,,,,,,,bottom,,,,,,,,440.35363912500907,440.9862248749705,440.9863890829729,446.2361080420087,446.2424008329981,447.4861327079707,447.48769637499936,449.28656391700497,449.2874024169869,450.73708645801526,mostlyred,FinalRedContrast,FinalGreenContrast,450.73741850000806,452.63683716696687,5,051926gm,001,2026-05-19_12h15.54.880,priming,,2026.1.3,60.005910571312505,2026-05-19 12h15.55.199398 -0700,
GR_Congruent_GreenCue_GreenProbe_Top,GreenGaborBoth.png,RedGaborBoth.png,GreenGaborDisappearTop.png,RedGaborBoth.png,Green.mp3,green,top,10,10,0,,,,0,10,10,26,452.6526693329797,,,,,,,,,,,,,,,,top,,,,,,,,452.6369340000092,453.3697447919985,453.36991608300013,458.61945395800285,458.6258488749736,459.8694806249696,459.8707820419804,461.1698955000029,461.1714782079798,463.4540337920189,mostlygreen,FinalRedContrast,FinalGreenContrast,463.45448174997,465.03694666700903,4,051926gm,001,2026-05-19_12h15.54.880,priming,,2026.1.3,60.005910571312505,2026-05-19 12h15.55.199398 -0700,
GR_Incongruent_GreenCue_RedProbe_Bottom,GreenGaborBoth.png,RedGaborBoth.png,GreenGaborBoth.png,RedGaborDisappearBottom.png,Green.mp3,green,bottom,11,11,0,,,,0,11,11,23,465.0527106249938,,,,,,,,,,,,,,,,bottom,,,,,,,,465.0370530830114,465.70311104197754,465.7032787500066,470.95273499999894,470.95913758297684,472.2028050419758,472.2044035830186,474.78658199997153,474.78773391700815,478.60373537498526,mostlygreen,FinalRedContrast,FinalGreenContrast,478.6048078329768,480.85371649998706,4,051926gm,001,2026-05-19_12h15.54.880,priming,,2026.1.3,60.005910571312505,2026-05-19 12h15.55.199398 -0700,
GR_Incongruent_GreenCue_RedProbe_Bottom,GreenGaborBoth.png,RedGaborBoth.png,GreenGaborBoth.png,RedGaborDisappearBottom.png,Green.mp3,green,bottom,12,12,0,,,,0,12,12,15,480.8694743749802,,,,,,,,,,,,,,,,bottom,,,,,,,,480.8538140419987,481.2865720000118,481.2867372080218,486.53626129199984,486.54272487497656,487.78625533299055,487.78796904196497,489.11999204201857,489.1216259999783,490.03705895796884,mostlygreen,FinalRedContrast,FinalGreenContrast,490.0381864999654,491.73705979197985,4,051926gm,001,2026-05-19_12h15.54.880,priming,,2026.1.3,60.005910571312505,2026-05-19 12h15.55.199398 -0700,
GR_Incongruent_GreenCue_RedProbe_Top,GreenGaborBoth.png,RedGaborBoth.png,GreenGaborBoth.png,RedGaborDisappearTop.png,Green.mp3,green,top,13,13,0,,,,0,13,13,38,491.7528508329997,,,,,,,,,,,,,,,,bottom,,,,,,,,491.7371563750203,492.43661129201064,492.4367822079803,497.6862476670067,497.6927779999678,498.9362395830103,498.9376509169815,501.5865768750082,501.5883242919808,503.52045616699615,mostlygreen,FinalRedContrast,FinalGreenContrast,503.5211509579676,504.8541504580062,4,051926gm,001,2026-05-19_12h15.54.880,priming,,2026.1.3,60.005910571312505,2026-05-19 12h15.55.199398 -0700,
GR_Congruent_RedCue_RedProbe_Bottom,GreenGaborBoth.png,RedGaborBoth.png,GreenGaborBoth.png,RedGaborDisappearBottom.png,Red.mp3,red,bottom,14,14,0,,,,0,14,14,41,504.86954008298926,,,,,,,,,,,,,,,,bottom,,,,,,,,504.8558479999774,505.30324795801425,505.30341549997684,510.55299762496725,510.5593430000008,511.8029878750094,511.80497595801717,513.4034987919731,513.4044412919902,515.8375660830061,mostlyred,FinalRedContrast,FinalGreenContrast,515.8378452080069,517.3538311250159,4,051926gm,001,2026-05-19_12h15.54.880,priming,,2026.1.3,60.005910571312505,2026-05-19 12h15.55.199398 -0700,
GR_Congruent_RedCue_RedProbe_Top,GreenGaborBoth.png,RedGaborBoth.png,GreenGaborBoth.png,RedGaborDisappearTop.png,Red.mp3,red,top,15,15,0,,,,0,15,15,56,517.3695885419729,,,,,,,,,,,,,,,,top,,,,,,,,517.3539283749997,517.8367377920076,517.8369012079784,523.0863433749764,523.0926509170095,524.3363955829991,524.3379723330145,525.336860875017,525.3380636670045,527.0372877079644,mostlyred,FinalRedContrast,FinalGreenContrast,527.037947957986,530.6040166249732,4,051926gm,001,2026-05-19_12h15.54.880,priming,,2026.1.3,60.005910571312505,2026-05-19 12h15.55.199398 -0700,
GR_Incongruent_RedCue_GreenProbe_Top,GreenGaborBoth.png,RedGaborBoth.png,GreenGaborDisappearTop.png,RedGaborBoth.png,Red.mp3,red,top,16,16,0,,,,0,16,16,20,530.6195667500142,,,,,,,,,,,,,,,,top,,,,,,,,530.6041126669734,531.0366694169934,531.0368357499829,536.286362666986,536.2927209580084,537.5363956670044,537.5380147079704,540.3701970420079,540.3717654579668,543.4040102079744,evensplit,FinalRedContrast,FinalGreenContrast,543.4050306669669,545.2373401249642,4,051926gm,001,2026-05-19_12h15.54.880,priming,,2026.1.3,60.005910571312505,2026-05-19 12h15.55.199398 -0700,
GR_Incongruent_GreenCue_RedProbe_Top,GreenGaborBoth.png,RedGaborBoth.png,GreenGaborBoth.png,RedGaborDisappearTop.png,Green.mp3,green,top,17,17,0,,,,0,17,17,70,545.2530825419817,,,,,,,,,,,,,,,,top,,,,,,,,545.2391557079973,545.7201592079946,545.7203236250207,550.969942042022,550.9762458329787,552.2198160419939,552.2216152499896,554.3368887079996,554.3384631670197,555.8539857079741,mostlygreen,FinalRedContrast,FinalGreenContrast,555.8549907499691,557.1039767499897,4,051926gm,001,2026-05-19_12h15.54.880,priming,,2026.1.3,60.005910571312505,2026-05-19 12h15.55.199398 -0700,
GR_Incongruent_GreenCue_RedProbe_Top,GreenGaborBoth.png,RedGaborBoth.png,GreenGaborBoth.png,RedGaborDisappearTop.png,Green.mp3,green,top,18,18,0,,,,0,18,18,30,557.1197805419797,,,,,,,,,,,,,,,,top,,,,,,,,557.104072667018,557.5201800829964,557.5203465829836,562.769827125012,562.7761845419882,564.0198881250108,564.021544667019,567.2536986250198,567.2549888329813,569.1706167499651,mostlygreen,FinalRedContrast,FinalGreenContrast,569.1714569170144,570.6540947919711,5,051926gm,001,2026-05-19_12h15.54.880,priming,,2026.1.3,60.005910571312505,2026-05-19 12h15.55.199398 -0700,
GR_Incongruent_RedCue_GreenProbe_Bottom,GreenGaborBoth.png,RedGaborBoth.png,GreenGaborDisappearBottom.png,RedGaborBoth.png,Red.mp3,red,bottom,19,19,0,,,,0,19,19,45,570.6697395420051,,,,,,,,,,,,,,,,bottom,,,,,,,,570.6556925419718,571.1868028750177,571.186966874986,576.4365410419996,576.444156292011,577.686632041994,577.6881922080065,579.4036890419666,579.4052916250075,581.070840041968,mostlygreen,FinalRedContrast,FinalGreenContrast,581.0711591250147,584.020813708019,4,051926gm,001,2026-05-19_12h15.54.880,priming,,2026.1.3,60.005910571312505,2026-05-19 12h15.55.199398 -0700,
GR_Incongruent_GreenCue_RedProbe_Bottom,GreenGaborBoth.png,RedGaborBoth.png,GreenGaborBoth.png,RedGaborDisappearBottom.png,Green.mp3,green,bottom,20,20,0,,,,0,20,20,71,584.0365304999868,,,,,,,,,,,,,,,,bottom,,,,,,,,584.022746542003,584.5203050830169,584.520468999981,589.7699262920069,589.776481207984,591.0199912919779,591.0217873749789,592.9370249169879,592.9384485419723,594.2041793749668,evensplit,FinalRedContrast,FinalGreenContrast,594.205206167011,595.8874470000155,5,051926gm,001,2026-05-19_12h15.54.880,priming,,2026.1.3,60.005910571312505,2026-05-19 12h15.55.199398 -0700,
GR_Incongruent_GreenCue_RedProbe_Top,GreenGaborBoth.png,RedGaborBoth.png,GreenGaborBoth.png,RedGaborDisappearTop.png,Green.mp3,green,top,21,21,0,,,,0,21,21,62,595.903264417022,,,,,,,,,,,,,,,,top,,,,,,,,595.8875559169683,596.3703318329644,596.3704945420031,601.619950458,601.6264993749792,602.8699460420175,602.8717517500045,605.7704256669967,605.7718956670142,607.0208907920169,mostlyred,FinalRedContrast,FinalGreenContrast,607.0219493330223,608.7208982500015,4,051926gm,001,2026-05-19_12h15.54.880,priming,,2026.1.3,60.005910571312505,2026-05-19 12h15.55.199398 -0700,
GR_Incongruent_RedCue_GreenProbe_Bottom,GreenGaborBoth.png,RedGaborBoth.png,GreenGaborDisappearBottom.png,RedGaborBoth.png,Red.mp3,red,bottom,22,22,0,,,,0,22,22,37,608.7366725419997,,,,,,,,,,,,,,,,bottom,,,,,,,,608.7225552920136,609.8371046669781,609.8372689579846,615.0868001669878,615.0932083330117,616.3367420830182,616.338234625,617.5204780420172,617.5219852079754,619.6374642499723,mostlygreen,FinalRedContrast,FinalGreenContrast,619.6385837079724,622.3209124999703,4,051926gm,001,2026-05-19_12h15.54.880,priming,,2026.1.3,60.005910571312505,2026-05-19 12h15.55.199398 -0700,
GR_Congruent_GreenCue_GreenProbe_Bottom,GreenGaborBoth.png,RedGaborBoth.png,GreenGaborDisappearBottom.png,RedGaborBoth.png,Green.mp3,green,bottom,23,23,0,,,,0,23,23,11,622.336729166971,,,,,,,,,,,,,,,,bottom,,,,,,,,622.322757457965,622.7870673749712,622.7872287919745,628.0367977499845,628.043351041968,629.2868095830199,629.2883591249702,630.8542373329983,630.8546858750051,631.7541642920114,mostlygreen,FinalRedContrast,FinalGreenContrast,631.7548260000185,632.8709162080195,4,051926gm,001,2026-05-19_12h15.54.880,priming,,2026.1.3,60.005910571312505,2026-05-19 12h15.55.199398 -0700,
GR_Incongruent_RedCue_GreenProbe_Bottom,GreenGaborBoth.png,RedGaborBoth.png,GreenGaborDisappearBottom.png,RedGaborBoth.png,Red.mp3,red,bottom,24,24,0,,,,0,24,24,29,632.8866961669992,,,,,,,,,,,,,,,,bottom,,,,,,,,632.872656499967,633.2870597919682,633.2872281249729,638.5369037499768,638.5433598749805,639.7869056669879,639.7886370419874,640.7373555829981,640.738792292017,643.2543779169791,mostlyred,FinalRedContrast,FinalGreenContrast,643.2553870420088,645.00438579201,4,051926gm,001,2026-05-19_12h15.54.880,priming,,2026.1.3,60.005910571312505,2026-05-19 12h15.55.199398 -0700,
GR_Congruent_RedCue_RedProbe_Bottom,GreenGaborBoth.png,RedGaborBoth.png,GreenGaborBoth.png,RedGaborDisappearBottom.png,Red.mp3,red,bottom,25,25,0,,,,0,25,25,9,645.0201782920049,,,,,,,,,,,,,,,,bottom,,,,,,,,645.0045275419834,645.3538565830095,645.3540187919862,650.6035579169984,650.6111130000209,651.8535943750176,651.8553179579903,653.1038782920223,653.1054722499684,655.1043748749653,mostlygreen,FinalRedContrast,FinalGreenContrast,655.1055204999866,657.6376587079722,3,051926gm,001,2026-05-19_12h15.54.880,priming,,2026.1.3,60.005910571312505,2026-05-19 12h15.55.199398 -0700,
GR_Congruent_GreenCue_GreenProbe_Bottom,GreenGaborBoth.png,RedGaborBoth.png,GreenGaborDisappearBottom.png,RedGaborBoth.png,Green.mp3,green,bottom,26,26,0,,,,0,26,26,67,657.6535003330209,,,,,,,,,,,,,,,,bottom,,,,,,,,657.6394969999674,658.0704639999894,658.0706260830048,663.3202117920155,663.3264752500108,664.5701879580156,664.5716658749734,665.904000666982,665.9050846669707,668.071227916982,mostlygreen,FinalRedContrast,FinalGreenContrast,668.0715022080112,669.504521832976,4,051926gm,001,2026-05-19_12h15.54.880,priming,,2026.1.3,60.005910571312505,2026-05-19 12h15.55.199398 -0700,
GR_Congruent_GreenCue_GreenProbe_Top,GreenGaborBoth.png,RedGaborBoth.png,GreenGaborDisappearTop.png,RedGaborBoth.png,Green.mp3,green,top,27,27,0,,,,0,27,27,66,669.5203057500185,,,,,,,,,,,,,,,,top,,,,,,,,669.504626000009,670.0206345000188,670.0207994579687,675.2703648749739,675.2771898329956,676.520335750014,676.522096916975,680.4874552499969,680.488976166991,681.3211582080112,mostlygreen,FinalRedContrast,FinalGreenContrast,681.3224057080224,682.4711999169667,4,051926gm,001,2026-05-19_12h15.54.880,priming,,2026.1.3,60.005910571312505,2026-05-19 12h15.55.199398 -0700,
GR_Congruent_GreenCue_GreenProbe_Bottom,GreenGaborBoth.png,RedGaborBoth.png,GreenGaborDisappearBottom.png,RedGaborBoth.png,Green.mp3,green,bottom,28,28,0,,,,0,28,28,51,682.4869980000076,,,,,,,,,,,,,,,,bottom,,,,,,,,682.4712954579736,683.1707109580166,683.1708736249711,688.42037204199,688.4267900830018,689.6704559579957,689.6723443749943,692.4541165829869,692.45564083301,694.2378747499897,mostlygreen,FinalRedContrast,FinalGreenContrast,694.2389877919923,696.0711512080161,4,051926gm,001,2026-05-19_12h15.54.880,priming,,2026.1.3,60.005910571312505,2026-05-19 12h15.55.199398 -0700,
GR_Congruent_RedCue_RedProbe_Bottom,GreenGaborBoth.png,RedGaborBoth.png,GreenGaborBoth.png,RedGaborDisappearBottom.png,Red.mp3,red,bottom,29,29,0,,,,0,29,29,49,696.0869443750125,,,,,,,,,,,,,,,,bottom,,,,,,,,696.0728030420141,696.5373171250103,696.5374792499933,701.7871192920138,701.793468000018,703.0371631250018,703.0383809999912,704.0709073750186,704.072502416966,705.3379675829783,evensplit,FinalRedContrast,FinalGreenContrast,705.3391110419761,706.9046787080006,3,051926gm,001,2026-05-19_12h15.54.880,priming,,2026.1.3,60.005910571312505,2026-05-19 12h15.55.199398 -0700,
RR_non_riv_catch_RedCue_RedProbe_Top,Blank.png,RedGaborBoth.png,Blank.png,RedGaborDisappearTop.png,Red.mp3,red,top,30,30,0,,,,0,30,30,72,706.9203658750048,,,,,,,,,,,,,,,,top,,,,,,,,706.9047747500008,707.3374386670184,707.337605083012,712.5871200420079,712.5938056670129,713.8370581669733,713.83882145799,714.6876422499772,714.6891150000156,716.1880472499761,allred,FinalRedContrast,FinalGreenContrast,716.1887102079927,719.4383632499957,4,051926gm,001,2026-05-19_12h15.54.880,priming,,2026.1.3,60.005910571312505,2026-05-19 12h15.55.199398 -0700,
GR_Congruent_RedCue_RedProbe_Top,GreenGaborBoth.png,RedGaborBoth.png,GreenGaborBoth.png,RedGaborDisappearTop.png,Red.mp3,red,top,31,31,0,,,,0,31,31,0,719.453795999987,,,,,,,,,,,,,,,,top,,,,,,,,719.4384701249655,720.0210857500206,720.0212679170072,725.2705945000052,725.2770184580004,726.5205612499849,726.5221085419762,728.4708875420038,728.4717315000016,729.5879402919672,evensplit,FinalRedContrast,FinalGreenContrast,729.5892099579796,731.0047819580068,4,051926gm,001,2026-05-19_12h15.54.880,priming,,2026.1.3,60.005910571312505,2026-05-19 12h15.55.199398 -0700,
GR_Congruent_GreenCue_GreenProbe_Top,GreenGaborBoth.png,RedGaborBoth.png,GreenGaborDisappearTop.png,RedGaborBoth.png,Green.mp3,green,top,32,32,0,,,,0,32,32,18,731.0205762920086,,,,,,,,,,,,,,,,top,,,,,,,,731.0066161669674,731.3375665830099,731.337733583001,736.5872781670187,736.5936305000214,737.8372800420038,737.8386060830089,740.1876537500066,740.1892352499999,741.6047742079827,mostlygreen,FinalRedContrast,FinalGreenContrast,741.6059568329947,743.4881367500057,3,051926gm,001,2026-05-19_12h15.54.880,priming,,2026.1.3,60.005910571312505,2026-05-19 12h15.55.199398 -0700,
GR_Congruent_RedCue_RedProbe_Top,GreenGaborBoth.png,RedGaborBoth.png,GreenGaborBoth.png,RedGaborDisappearTop.png,Red.mp3,red,top,33,33,0,,,,0,33,33,40,743.503864792001,,,,,,,,,,,,,,,,top,,,,,,,,743.4898074999801,744.8041884580161,744.8043514169985,750.0539580829791,750.060417916975,751.303981916979,751.3053470000159,752.0210634579998,752.0226240829797,753.2214262079797,mostlygreen,FinalRedContrast,FinalGreenContrast,753.2225834169658,754.654820042022,4,051926gm,001,2026-05-19_12h15.54.880,priming,,2026.1.3,60.005910571312505,2026-05-19 12h15.55.199398 -0700,
GR_Incongruent_RedCue_GreenProbe_Top,GreenGaborBoth.png,RedGaborBoth.png,GreenGaborDisappearTop.png,RedGaborBoth.png,Red.mp3,red,top,34,34,0,,,,0,34,34,28,754.6705668750219,,,,,,,,,,,,,,,,top,,,,,,,,754.6549160419963,755.2875634999946,755.2877375420067,760.5373582500033,760.5436806670041,761.787293041998,761.7888812079909,764.487898249994,764.4889012500062,765.5882979169837,evensplit,FinalRedContrast,FinalGreenContrast,765.5888927080086,767.3549329579691,3,051926gm,001,2026-05-19_12h15.54.880,priming,,2026.1.3,60.005910571312505,2026-05-19 12h15.55.199398 -0700,
GR_Congruent_RedCue_RedProbe_Top,GreenGaborBoth.png,RedGaborBoth.png,GreenGaborBoth.png,RedGaborDisappearTop.png,Red.mp3,red,top,35,35,0,,,,0,35,35,32,767.3706499999971,,,,,,,,,,,,,,,,top,,,,,,,,767.3550313750166,767.8544261250063,767.8545926670195,773.1039728749893,773.1104518329958,774.3540934579796,774.3553458329989,775.654531874985,775.6557372920215,779.7548838329967,mostlygreen,FinalRedContrast,FinalGreenContrast,779.7560253749834,781.9049399169744,4,051926gm,001,2026-05-19_12h15.54.880,priming,,2026.1.3,60.005910571312505,2026-05-19 12h15.55.199398 -0700,
GR_Congruent_GreenCue_GreenProbe_Top,GreenGaborBoth.png,RedGaborBoth.png,GreenGaborDisappearTop.png,RedGaborBoth.png,Green.mp3,green,top,36,36,0,,,,0,36,36,34,781.9206497920095,,,,,,,,,,,,,,,,top,,,,,,,,781.9069542919751,782.4379993330222,782.4381890419754,787.6874080419657,787.6937574999756,788.9374662920018,788.9390279169893,790.3878309999709,790.3893251669942,791.7714965419727,mostlygreen,FinalRedContrast,FinalGreenContrast,791.7720595829887,792.8715811669827,4,051926gm,001,2026-05-19_12h15.54.880,priming,,2026.1.3,60.005910571312505,2026-05-19 12h15.55.199398 -0700,
GG_non_riv_catch_GreenCue_GreenProbe_Bottom,GreenGaborBoth.png,Blank.png,GreenGaborDisappearBottom.png,Blank.png,Green.mp3,green,bottom,37,37,0,,,,0,37,37,79,792.8872700419743,,,,,,,,,,,,,,,,bottom,,,,,,,,792.8716774579952,793.3711072499864,793.3712688329979,798.6208557499922,798.6276900420198,799.8708813749836,799.8725087079802,800.9712856669794,800.972762624966,802.4883767919964,allgreen,FinalRedContrast,FinalGreenContrast,802.4889859170071,803.7716872079764,4,051926gm,001,2026-05-19_12h15.54.880,priming,,2026.1.3,60.005910571312505,2026-05-19 12h15.55.199398 -0700,
GR_Congruent_GreenCue_GreenProbe_Top,GreenGaborBoth.png,RedGaborBoth.png,GreenGaborDisappearTop.png,RedGaborBoth.png,Green.mp3,green,top,38,38,0,,,,0,38,38,50,803.7874833329697,,,,,,,,,,,,,,,,top,,,,,,,,803.7718258330133,804.254514375003,804.2546787079773,809.5041660830029,809.5106196249835,810.7541934580076,810.7559469999978,811.5046497079893,811.5062308749766,812.4717662499752,allgreen,FinalRedContrast,FinalGreenContrast,812.4727703749668,814.1383362499764,4,051926gm,001,2026-05-19_12h15.54.880,priming,,2026.1.3,60.005910571312505,2026-05-19 12h15.55.199398 -0700,
GR_Congruent_RedCue_RedProbe_Bottom,GreenGaborBoth.png,RedGaborBoth.png,GreenGaborBoth.png,RedGaborDisappearBottom.png,Red.mp3,red,bottom,39,39,0,,,,0,39,39,17,814.1540879579843,,,,,,,,,,,,,,,,bottom,,,,,,,,814.1399298749748,814.7045774579747,814.70474354201,819.9542608329793,819.9619772500009,821.2042926250142,821.2059543749783,823.1379886249779,823.1395667920006,824.6384947500192,allgreen,FinalRedContrast,FinalGreenContrast,824.6387683749781,826.2550066249678,4,051926gm,001,2026-05-19_12h15.54.880,priming,,2026.1.3,60.005910571312505,2026-05-19 12h15.55.199398 -0700,
GR_Congruent_GreenCue_GreenProbe_Bottom,GreenGaborBoth.png,RedGaborBoth.png,GreenGaborDisappearBottom.png,RedGaborBoth.png,Green.mp3,green,bottom,40,40,0,,,,0,40,40,19,826.2708386669983,,,,,,,,,,,,,,,,bottom,,,,,,,,826.256867707998,826.7213274170063,826.7214896670193,831.9709732499905,831.9774650830077,833.220974124968,833.2230297499918,834.5713717080071,834.5728863750119,835.4051627499866,allgreen,FinalRedContrast,FinalGreenContrast,835.4062572079711,836.7385207079933,4,051926gm,001,2026-05-19_12h15.54.880,priming,,2026.1.3,60.005910571312505,2026-05-19 12h15.55.199398 -0700,
RR_non_riv_catch_RedCue_RedProbe_Bottom,Blank.png,RedGaborBoth.png,Blank.png,RedGaborDisappearBottom.png,Red.mp3,red,bottom,41,41,0,,,,0,41,41,73,836.7543014999828,,,,,,,,,,,,,,,,bottom,,,,,,,,836.740168957971,837.0879122919869,837.0880771249649,842.3376656670007,842.3444353750092,843.5876795829972,843.5893550419714,844.5213780829799,844.522610999993,846.6385059999884,allred,FinalRedContrast,FinalGreenContrast,846.6388585829991,850.5384540829691,4,051926gm,001,2026-05-19_12h15.54.880,priming,,2026.1.3,60.005910571312505,2026-05-19 12h15.55.199398 -0700,
GR_Incongruent_GreenCue_RedProbe_Bottom,GreenGaborBoth.png,RedGaborBoth.png,GreenGaborBoth.png,RedGaborDisappearBottom.png,Green.mp3,green,bottom,42,42,0,,,,0,42,42,7,850.5542354579666,,,,,,,,,,,,,,,,bottom,,,,,,,,850.5404552500113,851.121384166996,851.1215512079652,856.3709518749965,856.3793805000023,857.6209808749845,857.6227521669935,858.8548904170166,858.8555892080185,861.1386487080017,evensplit,FinalRedContrast,FinalGreenContrast,861.1392875419697,862.4386452499893,4,051926gm,001,2026-05-19_12h15.54.880,priming,,2026.1.3,60.005910571312505,2026-05-19 12h15.55.199398 -0700,
GR_Congruent_RedCue_RedProbe_Bottom,GreenGaborBoth.png,RedGaborBoth.png,GreenGaborBoth.png,RedGaborDisappearBottom.png,Red.mp3,red,bottom,43,43,0,,,,0,43,43,57,862.4543565419735,,,,,,,,,,,,,,,,bottom,,,,,,,,862.4403548749979,862.8547839170205,862.8549722919706,868.1044709999696,868.1109082499752,869.3544824169949,869.3560558750178,870.2219634170178,870.2225040419726,874.3552588329767,evensplit,FinalRedContrast,FinalGreenContrast,874.3566313330084,876.3885139999911,5,051926gm,001,2026-05-19_12h15.54.880,priming,,2026.1.3,60.005910571312505,2026-05-19 12h15.55.199398 -0700,
GR_Incongruent_RedCue_GreenProbe_Bottom,GreenGaborBoth.png,RedGaborBoth.png,GreenGaborDisappearBottom.png,RedGaborBoth.png,Red.mp3,red,bottom,44,44,0,,,,0,44,44,13,876.4043827499845,,,,,,,,,,,,,,,,bottom,,,,,,,,876.3886098749936,876.8379816249944,876.8381440829835,882.0878043749835,882.0953741249978,883.337750207982,883.3392246249714,884.2548756669858,884.2560362920049,885.4053140420001,allgreen,FinalRedContrast,FinalGreenContrast,885.4060895000002,886.3553188329679,4,051926gm,001,2026-05-19_12h15.54.880,priming,,2026.1.3,60.005910571312505,2026-05-19 12h15.55.199398 -0700,
GR_Congruent_GreenCue_GreenProbe_Bottom,GreenGaborBoth.png,RedGaborBoth.png,GreenGaborDisappearBottom.png,RedGaborBoth.png,Green.mp3,green,bottom,45,45,0,,,,0,45,45,35,886.3710442499723,,,,,,,,,,,,,,,,bottom,,,,,,,,886.3572082499741,886.7048250829685,886.7049894999946,891.9545390830026,891.9609697919805,893.2045881249942,893.2057994169882,893.7882339169737,893.7897910000174,895.1387199999881,allgreen,FinalRedContrast,FinalGreenContrast,895.1403344999999,895.9887058329768,4,051926gm,001,2026-05-19_12h15.54.880,priming,,2026.1.3,60.005910571312505,2026-05-19 12h15.55.199398 -0700,
GR_Incongruent_GreenCue_RedProbe_Top,GreenGaborBoth.png,RedGaborBoth.png,GreenGaborBoth.png,RedGaborDisappearTop.png,Green.mp3,green,top,46,46,0,,,,0,46,46,14,896.0044820829644,,,,,,,,,,,,,,,,bottom,,,,,,,,895.9888036249904,896.2882461670088,896.2884134170017,901.5377958749887,901.5453933330136,902.7879330419819,902.7892193329753,904.3882944170036,904.3899497920065,906.622371083009,mostlygreen,FinalRedContrast,FinalGreenContrast,906.6226512499852,907.672119416995,4,051926gm,001,2026-05-19_12h15.54.880,priming,,2026.1.3,60.005910571312505,2026-05-19 12h15.55.199398 -0700,
GR_Incongruent_GreenCue_RedProbe_Bottom,GreenGaborBoth.png,RedGaborBoth.png,GreenGaborBoth.png,RedGaborDisappearBottom.png,Green.mp3,green,bottom,47,47,0,,,,0,47,47,63,907.6878535419819,,,,,,,,,,,,,,,,bottom,,,,,,,,907.6722339169937,908.0215602919925,908.021726957988,913.2712533330196,913.2776307499735,914.5212425420177,914.522972833016,915.3383494169684,915.3399210000061,916.7387869579834,evensplit,FinalRedContrast,FinalGreenContrast,916.7398313750164,918.3055407920037,4,051926gm,001,2026-05-19_12h15.54.880,priming,,2026.1.3,60.005910571312505,2026-05-19 12h15.55.199398 -0700,
GR_Incongruent_RedCue_GreenProbe_Top,GreenGaborBoth.png,RedGaborBoth.png,GreenGaborDisappearTop.png,RedGaborBoth.png,Red.mp3,red,top,48,48,0,,,,0,48,48,4,918.3212174170185,,,,,,,,,,,,,,,,top,,,,,,,,918.3072936249664,918.7883056249702,918.7884762919857,924.03801608301,924.0456109169754,925.2881035419996,925.2897344579687,925.9051487920224,925.9066868330119,926.6059297919855,allgreen,FinalRedContrast,FinalGreenContrast,926.6061844169744,927.4059987919754,4,051926gm,001,2026-05-19_12h15.54.880,priming,,2026.1.3,60.005910571312505,2026-05-19 12h15.55.199398 -0700,
GR_Congruent_GreenCue_GreenProbe_Top,GreenGaborBoth.png,RedGaborBoth.png,GreenGaborDisappearTop.png,RedGaborBoth.png,Green.mp3,green,top,49,49,0,,,,0,49,49,42,927.4213353749947,,,,,,,,,,,,,,,,top,,,,,,,,927.4078802500153,927.9217503750115,927.9219147079857,933.1714308329974,933.1778557919897,934.4213487079833,934.422877791978,935.0384666249738,935.0392397500109,936.7057972920011,allgreen,FinalRedContrast,FinalGreenContrast,936.7068604580127,937.4390835419763,4,051926gm,001,2026-05-19_12h15.54.880,priming,,2026.1.3,60.005910571312505,2026-05-19 12h15.55.199398 -0700,
GR_Congruent_RedCue_RedProbe_Bottom,GreenGaborBoth.png,RedGaborBoth.png,GreenGaborBoth.png,RedGaborDisappearBottom.png,Red.mp3,red,bottom,50,50,0,,,,0,50,50,1,937.4546538330032,,,,,,,,,,,,,,,,top,,,,,,,,937.4406679170206,937.7552364579751,937.7554070829647,943.0047575829667,943.0124838330084,944.25474449998,944.2567276670015,948.4055031249882,948.4063035419676,950.6888439999893,allgreen,FinalRedContrast,FinalGreenContrast,950.6901408329722,951.5889789579669,4,051926gm,001,2026-05-19_12h15.54.880,priming,,2026.1.3,60.005910571312505,2026-05-19 12h15.55.199398 -0700,
GR_Incongruent_RedCue_GreenProbe_Top,GreenGaborBoth.png,RedGaborBoth.png,GreenGaborDisappearTop.png,RedGaborBoth.png,Red.mp3,red,top,51,51,0,,,,0,51,51,44,951.6045979579794,,,,,,,,,,,,,,,,top,,,,,,,,951.5891080829897,952.0550452920143,952.0552109580021,957.3048358749948,957.3112489579944,958.5548742919927,958.556127207994,959.6720291670063,959.6729847079841,960.9893977500033,allgreen,FinalRedContrast,FinalGreenContrast,960.9899143750081,962.5724475419847,4,051926gm,001,2026-05-19_12h15.54.880,priming,,2026.1.3,60.005910571312505,2026-05-19 12h15.55.199398 -0700,
RR_non_riv_catch_GreenCue_RedProbe_Bottom,Blank.png,RedGaborBoth.png,Blank.png,RedGaborDisappearBottom.png,Green.mp3,green,bottom,52,52,0,,,,0,52,52,75,962.5881331249839,,,,,,,,,,,,,,,,bottom,,,,,,,,962.5743801670033,963.3717745000031,963.3719365830184,968.6215385419782,968.6278061670018,969.8715625000186,969.8727864999673,970.7052352919709,970.7067979999701,972.005667749967,allred,FinalRedContrast,FinalGreenContrast,972.006840542017,972.772305749997,4,051926gm,001,2026-05-19_12h15.54.880,priming,,2026.1.3,60.005910571312505,2026-05-19 12h15.55.199398 -0700,
GR_Incongruent_GreenCue_RedProbe_Top,GreenGaborBoth.png,RedGaborBoth.png,GreenGaborBoth.png,RedGaborDisappearTop.png,Green.mp3,green,top,53,53,0,,,,0,53,53,54,972.7880379169947,,,,,,,,,,,,,,,,bottom,,,,,,,,972.7724024580093,973.2718357919948,973.2719969580066,978.521552332968,978.529083958012,979.7715303329751,979.7729802500107,982.1385893329862,982.1402202919708,984.0224051249679,allgreen,FinalRedContrast,FinalGreenContrast,984.0227056670119,985.0557433749782,4,051926gm,001,2026-05-19_12h15.54.880,priming,,2026.1.3,60.005910571312505,2026-05-19 12h15.55.199398 -0700,
GR_Incongruent_GreenCue_RedProbe_Top,GreenGaborBoth.png,RedGaborBoth.png,GreenGaborBoth.png,RedGaborDisappearTop.png,Green.mp3,green,top,54,54,0,,,,0,54,54,22,985.0714155000169,,,,,,,,,,,,,,,,top,,,,,,,,985.0558904170175,985.4217473749886,985.4219146249816,990.6716883329791,990.6781860829797,991.9216762079741,991.9231942920014,997.1886979169794,997.1903209579759,1025.3726107080001,mostlyred,FinalRedContrast,FinalGreenContrast,1025.3736128750024,1027.0893049999722,4,051926gm,001,2026-05-19_12h15.54.880,priming,,2026.1.3,60.005910571312505,2026-05-19 12h15.55.199398 -0700,
GR_Congruent_GreenCue_GreenProbe_Top,GreenGaborBoth.png,RedGaborBoth.png,GreenGaborDisappearTop.png,RedGaborBoth.png,Green.mp3,green,top,55,55,0,,,,0,55,55,2,1027.1050306250108,,,,,,,,,,,,,,,,top,,,,,,,,1027.0894294580212,1027.5887495829957,1027.588916082983,1032.8384439169895,1032.847213083005,1034.0883030829718,1034.0897615830181,1034.9054838329903,1034.906475249969,1035.5559393750154,allgreen,FinalRedContrast,FinalGreenContrast,1035.5570731670014,1036.055927874986,4,051926gm,001,2026-05-19_12h15.54.880,priming,,2026.1.3,60.005910571312505,2026-05-19 12h15.55.199398 -0700,
GR_Incongruent_RedCue_GreenProbe_Top,GreenGaborBoth.png,RedGaborBoth.png,GreenGaborDisappearTop.png,RedGaborBoth.png,Red.mp3,red,top,56,56,0,,,,0,56,56,60,1036.0716657079756,,,,,,,,,,,,,,,,top,,,,,,,,1036.0575711670099,1036.4887202919926,1036.4888872919837,1041.7384004999767,1041.7448347500176,1042.9885270830127,1042.9901897499803,1043.572142207995,1043.573368042009,1044.1558939170209,allgreen,FinalRedContrast,FinalGreenContrast,1044.1571727499831,1044.7892772079795,4,051926gm,001,2026-05-19_12h15.54.880,priming,,2026.1.3,60.005910571312505,2026-05-19 12h15.55.199398 -0700,
GR_Incongruent_GreenCue_RedProbe_Bottom,GreenGaborBoth.png,RedGaborBoth.png,GreenGaborBoth.png,RedGaborDisappearBottom.png,Green.mp3,green,bottom,57,57,0,,,,0,57,57,31,1044.804970416997,,,,,,,,,,,,,,,,top,,,,,,,,1044.7912232499802,1045.405326750013,1045.4054899580078,1050.6551171669853,1050.6619923749822,1051.9050282500102,1051.9066449580132,1054.7223440419766,1054.7240193749894,1056.1731124169892,allgreen,FinalRedContrast,FinalGreenContrast,1056.1738608750165,1057.2227769580204,4,051926gm,001,2026-05-19_12h15.54.880,priming,,2026.1.3,60.005910571312505,2026-05-19 12h15.55.199398 -0700,
GR_Incongruent_RedCue_GreenProbe_Bottom,GreenGaborBoth.png,RedGaborBoth.png,GreenGaborDisappearBottom.png,RedGaborBoth.png,Red.mp3,red,bottom,58,58,0,,,,0,58,58,69,1057.2385183330043,,,,,,,,,,,,,,,,bottom,,,,,,,,1057.2244214579696,1057.9388505420065,1057.9390164170181,1063.1885674580117,1063.1962180829723,1064.438568249985,1064.4401418750058,1065.6058129169978,1065.606476875022,1067.3728229170083,allgreen,FinalRedContrast,FinalGreenContrast,1067.373705749982,1068.5731576249818,4,051926gm,001,2026-05-19_12h15.54.880,priming,,2026.1.3,60.005910571312505,2026-05-19 12h15.55.199398 -0700,
GR_Incongruent_RedCue_GreenProbe_Top,GreenGaborBoth.png,RedGaborBoth.png,GreenGaborDisappearTop.png,RedGaborBoth.png,Red.mp3,red,top,59,59,0,,,,0,59,59,52,1068.5885047920165,,,,,,,,,,,,,,,,top,,,,,,,,1068.573266417021,1069.3555272920057,1069.3556931670173,1074.6051155420137,1074.6115286250133,1075.8552790830145,1075.8570168329752,1076.5389940830064,1076.5400606250041,1077.3897462079767,allgreen,FinalRedContrast,FinalGreenContrast,1077.3899988749763,1079.1560609579901,4,051926gm,001,2026-05-19_12h15.54.880,priming,,2026.1.3,60.005910571312505,2026-05-19 12h15.55.199398 -0700,
GR_Congruent_GreenCue_GreenProbe_Top,GreenGaborBoth.png,RedGaborBoth.png,GreenGaborDisappearTop.png,RedGaborBoth.png,Green.mp3,green,top,60,60,0,,,,0,60,60,10,1079.171855499968,,,,,,,,,,,,,,,,top,,,,,,,,1079.1579091249732,1080.4388658329844,1080.4390279169893,1085.6886951670167,1085.6951933749951,1086.9387234579772,1086.9399943749886,1087.5727907079854,1087.5737399579957,1088.9228053329862,allgreen,FinalRedContrast,FinalGreenContrast,1088.9238339579897,1089.4062320420053,4,051926gm,001,2026-05-19_12h15.54.880,priming,,2026.1.3,60.005910571312505,2026-05-19 12h15.55.199398 -0700,
GR_Incongruent_GreenCue_RedProbe_Bottom,GreenGaborBoth.png,RedGaborBoth.png,GreenGaborBoth.png,RedGaborDisappearBottom.png,Green.mp3,green,bottom,61,61,0,,,,0,61,61,47,1089.4219584999955,,,,,,,,,,,,,,,,bottom,,,,,,,,1089.40637099999,1089.8223755829968,1089.8225364579703,1095.0719940830022,1095.0794241669937,1096.3220193330199,1096.3233421670157,1098.872443708009,1098.8735272500198,1100.1730210829992,evensplit,FinalRedContrast,FinalGreenContrast,1100.173574083019,1102.1394437499694,4,051926gm,001,2026-05-19_12h15.54.880,priming,,2026.1.3,60.005910571312505,2026-05-19 12h15.55.199398 -0700,
GR_Congruent_GreenCue_GreenProbe_Bottom,GreenGaborBoth.png,RedGaborBoth.png,GreenGaborDisappearBottom.png,RedGaborBoth.png,Green.mp3,green,bottom,62,62,0,,,,0,62,62,3,1102.1553187079844,,,,,,,,,,,,,,,,bottom,,,,,,,,1102.1395392079721,1103.5056562920217,1103.505822792009,1108.7553877499886,1108.763048916997,1110.00535987498,1110.0071288329782,1111.8059899999644,1111.8070149999694,1112.7395300000207,allgreen,FinalRedContrast,FinalGreenContrast,1112.740813707991,1113.9728689999902,4,051926gm,001,2026-05-19_12h15.54.880,priming,,2026.1.3,60.005910571312505,2026-05-19 12h15.55.199398 -0700,
GG_non_riv_catch_RedCue_GreenProbe_Bottom,GreenGaborBoth.png,Blank.png,GreenGaborDisappearBottom.png,Blank.png,Red.mp3,red,bottom,63,63,0,,,,0,63,63,77,1113.9886070420034,,,,,,,,,,,,,,,,bottom,,,,,,,,1113.9745348329889,1114.3726487079985,1114.3728204579675,1119.6221730830148,1119.6285079169902,1120.8722377499798,1120.8737244170043,1122.389641457994,1122.3900178329786,1123.3230169999879,allgreen,FinalRedContrast,FinalGreenContrast,1123.3239502920187,1124.5230276249931,4,051926gm,001,2026-05-19_12h15.54.880,priming,,2026.1.3,60.005910571312505,2026-05-19 12h15.55.199398 -0700,
GR_Incongruent_RedCue_GreenProbe_Bottom,GreenGaborBoth.png,RedGaborBoth.png,GreenGaborDisappearBottom.png,RedGaborBoth.png,Red.mp3,red,bottom,64,64,0,,,,0,64,64,5,1124.5387787079671,,,,,,,,,,,,,,,,bottom,,,,,,,,1124.5231259170105,1125.2224632080179,1125.2226291249972,1130.4721216249745,1130.4786238329834,1131.722181375022,1131.7236538750003,1133.7559223329881,1133.7574562079972,1142.823011874978,mostlygreen,FinalRedContrast,FinalGreenContrast,1142.8240846249973,1145.9734465829679,4,051926gm,001,2026-05-19_12h15.54.880,priming,,2026.1.3,60.005910571312505,2026-05-19 12h15.55.199398 -0700,
GR_Congruent_RedCue_RedProbe_Bottom,GreenGaborBoth.png,RedGaborBoth.png,GreenGaborBoth.png,RedGaborDisappearBottom.png,Red.mp3,red,bottom,65,65,0,,,,0,65,65,25,1145.9887707919697,,,,,,,,,,,,,,,,bottom,,,,,,,,1145.9735430419678,1146.455797792005,1146.4559612500016,1151.705606375006,1151.712147083017,1152.955623249989,1152.9571653750027,1154.2560154579696,1154.2576243749936,1155.2730957079912,evensplit,FinalRedContrast,FinalGreenContrast,1155.27418829198,1157.1563741249847,4,051926gm,001,2026-05-19_12h15.54.880,priming,,2026.1.3,60.005910571312505,2026-05-19 12h15.55.199398 -0700,
GR_Incongruent_RedCue_GreenProbe_Top,GreenGaborBoth.png,RedGaborBoth.png,GreenGaborDisappearTop.png,RedGaborBoth.png,Red.mp3,red,top,66,66,0,,,,0,66,66,68,1157.1722336669918,,,,,,,,,,,,,,,,top,,,,,,,,1157.1564698329894,1157.6393034170032,1157.6394735829672,1162.8889705420006,1162.8966307499795,1164.138945624989,1164.1409793749917,1165.6061578330118,1165.6070440419717,1166.123112707981,allgreen,FinalRedContrast,FinalGreenContrast,1166.124224166968,1167.0398784999852,4,051926gm,001,2026-05-19_12h15.54.880,priming,,2026.1.3,60.005910571312505,2026-05-19 12h15.55.199398 -0700,
GR_Congruent_RedCue_RedProbe_Bottom,GreenGaborBoth.png,RedGaborBoth.png,GreenGaborBoth.png,RedGaborDisappearBottom.png,Red.mp3,red,bottom,67,67,0,,,,0,67,67,33,1167.055569707998,,,,,,,,,,,,,,,,bottom,,,,,,,,1167.0399736670079,1167.5059781669988,1167.5061447499902,1172.75557870802,1172.7620656670188,1174.0055400829879,1174.0072957499651,1176.339387917018,1176.3410617919872,1177.4065191670088,evensplit,FinalRedContrast,FinalGreenContrast,1177.4070356669836,1178.9064505830174,4,051926gm,001,2026-05-19_12h15.54.880,priming,,2026.1.3,60.005910571312505,2026-05-19 12h15.55.199398 -0700,
GR_Congruent_RedCue_RedProbe_Top,GreenGaborBoth.png,RedGaborBoth.png,GreenGaborBoth.png,RedGaborDisappearTop.png,Red.mp3,red,top,68,68,0,,,,0,68,68,24,1178.9222572500003,,,,,,,,,,,,,,,,top,,,,,,,,1178.90654549998,1179.389546499995,1179.3897195829777,1184.6391050000093,1184.6466303750058,1185.8891043749754,1185.8907144580153,1186.656171916984,1186.65726704197,1187.8399494579644,evensplit,FinalRedContrast,FinalGreenContrast,1187.8410101250047,1191.0065411669784,4,051926gm,001,2026-05-19_12h15.54.880,priming,,2026.1.3,60.005910571312505,2026-05-19 12h15.55.199398 -0700,
GR_Incongruent_GreenCue_RedProbe_Top,GreenGaborBoth.png,RedGaborBoth.png,GreenGaborBoth.png,RedGaborDisappearTop.png,Green.mp3,green,top,69,69,0,,,,0,69,69,46,1191.022332832974,,,,,,,,,,,,,,,,top,,,,,,,,1191.0084245830076,1197.1393755829777,1197.1395389999961,1202.389142207976,1202.395546875021,1203.6390895830118,1203.6403326669824,1204.5228089169832,1204.5244704579818,1205.489902833011,mostlyred,FinalRedContrast,FinalGreenContrast,1205.4908794579678,1208.1065694999998,4,051926gm,001,2026-05-19_12h15.54.880,priming,,2026.1.3,60.005910571312505,2026-05-19 12h15.55.199398 -0700,
GR_Incongruent_RedCue_GreenProbe_Bottom,GreenGaborBoth.png,RedGaborBoth.png,GreenGaborDisappearBottom.png,RedGaborBoth.png,Red.mp3,red,bottom,70,70,0,,,,0,70,70,53,1208.1222843329888,,,,,,,,,,,,,,,,bottom,,,,,,,,1208.1082346250187,1208.45615391701,1208.4563169999747,1213.7057739169686,1213.7122617079876,1214.9559352499782,1214.9575269169873,1217.9896482499898,1217.9905874580145,1218.8233996669878,mostlyred,FinalRedContrast,FinalGreenContrast,1218.8244970829692,1220.4067133329809,4,051926gm,001,2026-05-19_12h15.54.880,priming,,2026.1.3,60.005910571312505,2026-05-19 12h15.55.199398 -0700,
GR_Incongruent_RedCue_GreenProbe_Bottom,GreenGaborBoth.png,RedGaborBoth.png,GreenGaborDisappearBottom.png,RedGaborBoth.png,Red.mp3,red,bottom,71,71,0,,,,0,71,71,61,1220.4225005420158,,,,,,,,,,,,,,,,bottom,,,,,,,,1220.40681174997,1220.8228460829705,1220.8230144999688,1226.0725365420221,1226.0790737500065,1227.322701499972,1227.3240259999875,1228.2562718749978,1228.2578059170046,1230.340049416991,mostlygreen,FinalRedContrast,FinalGreenContrast,1230.3409732920118,1233.5733798749861,3,051926gm,001,2026-05-19_12h15.54.880,priming,,2026.1.3,60.005910571312505,2026-05-19 12h15.55.199398 -0700,
GR_Incongruent_RedCue_GreenProbe_Bottom,GreenGaborBoth.png,RedGaborBoth.png,GreenGaborDisappearBottom.png,RedGaborBoth.png,Red.mp3,red,bottom,72,72,0,,,,0,72,72,21,1233.5891304999823,,,,,,,,,,,,,,,,bottom,,,,,,,,1233.5734877500217,1233.9562698329682,1233.956437582965,1239.2058547500055,1239.2121328329667,1240.455960332998,1240.4572224579751,1241.2228362499736,1241.224320999987,1242.0400600829744,mostlyred,FinalRedContrast,FinalGreenContrast,1242.0407769170124,1243.3733486249694,4,051926gm,001,2026-05-19_12h15.54.880,priming,,2026.1.3,60.005910571312505,2026-05-19 12h15.55.199398 -0700,
GR_Congruent_GreenCue_GreenProbe_Bottom,GreenGaborBoth.png,RedGaborBoth.png,GreenGaborDisappearBottom.png,RedGaborBoth.png,Green.mp3,green,bottom,73,73,0,,,,0,73,73,59,1243.3891687499708,,,,,,,,,,,,,,,,bottom,,,,,,,,1243.3752092919894,1243.7395238329773,1243.7396854999824,1248.989303166978,1248.995681624976,1250.239339999971,1250.2410250829998,1251.2563933749916,1251.257378667011,1251.7902557919733,evensplit,FinalRedContrast,FinalGreenContrast,1251.7905747920158,1252.7235059579834,4,051926gm,001,2026-05-19_12h15.54.880,priming,,2026.1.3,60.005910571312505,2026-05-19 12h15.55.199398 -0700,
GG_non_riv_catch_GreenCue_GreenProbe_Top,GreenGaborBoth.png,Blank.png,GreenGaborDisappearTop.png,Blank.png,Green.mp3,green,top,74,74,0,,,,0,74,74,78,1252.7392618749873,,,,,,,,,,,,,,,,top,,,,,,,,1252.7236099580186,1253.0896212079679,1253.0897824579733,1258.3392399579752,1258.3447394999675,1259.5893802500213,1259.59091983299,1260.4563972079777,1260.457903374976,1261.0901513330173,allgreen,FinalRedContrast,FinalGreenContrast,1261.0912125830073,1261.7901854999945,4,051926gm,001,2026-05-19_12h15.54.880,priming,,2026.1.3,60.005910571312505,2026-05-19 12h15.55.199398 -0700,
GR_Incongruent_RedCue_GreenProbe_Top,GreenGaborBoth.png,RedGaborBoth.png,GreenGaborDisappearTop.png,RedGaborBoth.png,Red.mp3,red,top,75,75,0,,,,0,75,75,12,1261.8058854999836,,,,,,,,,,,,,,,,top,,,,,,,,1261.7917635000194,1262.189646957966,1262.189808541967,1267.4393689999706,1267.445753625012,1268.6893159999745,1268.6911090419744,1269.3897678750218,1269.3911723329802,1270.8734980419977,mostlyred,FinalRedContrast,FinalGreenContrast,1270.8749645000207,1272.3567915830063,4,051926gm,001,2026-05-19_12h15.54.880,priming,,2026.1.3,60.005910571312505,2026-05-19 12h15.55.199398 -0700,
GR_Congruent_RedCue_RedProbe_Bottom,GreenGaborBoth.png,RedGaborBoth.png,GreenGaborBoth.png,RedGaborDisappearBottom.png,Red.mp3,red,bottom,76,76,0,,,,0,76,76,65,1272.3725194580038,,,,,,,,,,,,,,,,bottom,,,,,,,,1272.3568858329672,1272.7062515419675,1272.706415291992,1277.956032417016,1277.962499999965,1279.2061815829948,1279.207689791976,1280.6065801249933,1280.607574249967,1282.0069073329796,mostlyred,FinalRedContrast,FinalGreenContrast,1282.0072442499804,1283.890309666982,4,051926gm,001,2026-05-19_12h15.54.880,priming,,2026.1.3,60.005910571312505,2026-05-19 12h15.55.199398 -0700,
GR_Incongruent_RedCue_GreenProbe_Top,GreenGaborBoth.png,RedGaborBoth.png,GreenGaborDisappearTop.png,RedGaborBoth.png,Red.mp3,red,top,77,77,0,,,,0,77,77,36,1283.9061357079772,,,,,,,,,,,,,,,,top,,,,,,,,1283.8904327079654,1284.2731529999874,1284.2733200420043,1289.5227722079726,1289.5293271249975,1290.7728442919906,1290.774267916975,1292.3565315000014,1292.3580365420203,1293.2569383750088,mostlyred,FinalRedContrast,FinalGreenContrast,1293.257727542019,1294.340272500005,4,051926gm,001,2026-05-19_12h15.54.880,priming,,2026.1.3,60.005910571312505,2026-05-19 12h15.55.199398 -0700,
GG_non_riv_catch_RedCue_GreenProbe_Top,GreenGaborBoth.png,Blank.png,GreenGaborDisappearTop.png,Blank.png,Red.mp3,red,top,78,78,0,,,,0,78,78,76,1294.3560060830205,,,,,,,,,,,,,,,,top,,,,,,,,1294.3403684999794,1294.7231256670202,1294.7232894169865,1299.972787583014,1299.978295125009,1301.2227157080197,1301.224507167004,1301.7064764999668,1301.7083422919968,1302.556919207971,allgreen,FinalRedContrast,FinalGreenContrast,1302.5576896250132,1303.4736339999945,4,051926gm,001,2026-05-19_12h15.54.880,priming,,2026.1.3,60.005910571312505,2026-05-19 12h15.55.199398 -0700,
GR_Congruent_GreenCue_GreenProbe_Bottom,GreenGaborBoth.png,RedGaborBoth.png,GreenGaborDisappearBottom.png,RedGaborBoth.png,Green.mp3,green,bottom,79,79,0,,,,0,79,79,43,1303.4893120420165,,,,,,,,,,,,,,,,bottom,,,,,,,,1303.4754743329831,1303.9897205830202,1303.9898898749962,1309.2393927499652,1309.2457612080034,1310.4895252080169,1310.4910789999994,1311.373425207974,1311.3740248749964,1313.0904367920011,mostlyred,FinalRedContrast,FinalGreenContrast,1313.091467332968,1314.5407523330068,4,051926gm,001,2026-05-19_12h15.54.880,priming,,2026.1.3,60.005910571312505,2026-05-19 12h15.55.199398 -0700,
GR_Congruent_RedCue_RedProbe_Top,GreenGaborBoth.png,RedGaborBoth.png,GreenGaborBoth.png,RedGaborDisappearTop.png,Red.mp3,red,top,80,0,1,,,,1,0,80,16,1314.5561573330197,,,,,,,,,,,,,,,,top,,,,,,,,1314.5424568330054,1314.9402006249875,1314.9403730829945,1320.1895562919672,1320.1959361250047,1321.4396195830195,1321.4412333749933,1323.456638292002,1323.4583976250142,1325.2404274580185,mostlygreen,FinalRedContrast,FinalGreenContrast,1325.2410125419847,1326.7574628330185,4,051926gm,001,2026-05-19_12h15.54.880,priming,,2026.1.3,60.005910571312505,2026-05-19 12h15.55.199398 -0700,
GR_Congruent_RedCue_RedProbe_Bottom,GreenGaborBoth.png,RedGaborBoth.png,GreenGaborBoth.png,RedGaborDisappearBottom.png,Red.mp3,red,bottom,81,1,1,,,,1,1,81,49,1326.772834250005,,,,,,,,,,,,,,,,bottom,,,,,,,,1326.7575709999655,1327.2565442500054,1327.2567085420014,1332.5061757499934,1332.512627499993,1333.7561720419908,1333.7578970000031,1336.3066348329885,1336.308315082977,1338.1736982080038,mostlyred,FinalRedContrast,FinalGreenContrast,1338.174794999999,1338.4903780419845,1,051926gm,001,2026-05-19_12h15.54.880,priming,,2026.1.3,60.005910571312505,2026-05-19 12h15.55.199398 -0700,
GR_Incongruent_GreenCue_RedProbe_Top,GreenGaborBoth.png,RedGaborBoth.png,GreenGaborBoth.png,RedGaborDisappearTop.png,Green.mp3,green,top,82,2,1,,,,1,2,82,6,1338.5061958329752,,,,,,,,,,,,,,,,top,,,,,,,,1338.4922105419682,1339.6231285000104,1339.6232920829789,1344.873090457986,1344.8794810419786,1346.1231178750168,1346.1245805000071,1346.9068089170032,1346.9078369580093,1348.623863041983,mostlyred,FinalRedContrast,FinalGreenContrast,1348.6247674999759,1349.823890791973,4,051926gm,001,2026-05-19_12h15.54.880,priming,,2026.1.3,60.005910571312505,2026-05-19 12h15.55.199398 -0700,
GR_Incongruent_RedCue_GreenProbe_Bottom,GreenGaborBoth.png,RedGaborBoth.png,GreenGaborDisappearBottom.png,RedGaborBoth.png,Red.mp3,red,bottom,83,3,1,,,,1,3,83,21,1349.8396559170214,,,,,,,,,,,,,,,,bottom,,,,,,,,1349.8255377080059,1350.3400564999902,1350.3402252079686,1355.5896660829894,1355.5961781669757,1356.8397205420188,1356.8413454170222,1357.9068364169798,1357.9083524169982,1359.473865374981,mostlygreen,FinalRedContrast,FinalGreenContrast,1359.4749625420081,1360.1072902500164,2,051926gm,001,2026-05-19_12h15.54.880,priming,,2026.1.3,60.005910571312505,2026-05-19 12h15.55.199398 -0700,
GR_Incongruent_GreenCue_RedProbe_Bottom,GreenGaborBoth.png,RedGaborBoth.png,GreenGaborBoth.png,RedGaborDisappearBottom.png,Green.mp3,green,bottom,84,4,1,,,,1,4,84,71,1360.1229042499908,,,,,,,,,,,,,,,,bottom,,,,,,,,1360.1091172919841,1362.4568190419814,1362.4569855000009,1367.706395666988,1367.7127922920045,1368.9565194579773,1368.957935250015,1370.1901509169838,1370.1913278329885,1371.5239380829735,mostlygreen,FinalRedContrast,FinalGreenContrast,1371.5249935419997,1372.5740058749798,4,051926gm,001,2026-05-19_12h15.54.880,priming,,2026.1.3,60.005910571312505,2026-05-19 12h15.55.199398 -0700,
GR_Congruent_GreenCue_GreenProbe_Top,GreenGaborBoth.png,RedGaborBoth.png,GreenGaborDisappearTop.png,RedGaborBoth.png,Green.mp3,green,top,85,5,1,,,,1,5,85,42,1372.5896844170056,,,,,,,,,,,,,,,,top,,,,,,,,1372.574109292007,1373.040046249982,1373.0402074999874,1378.2898264579708,1378.2962391669862,1379.5398691669689,1379.541366667021,1380.3235560000176,1380.3250432920177,1381.490599917015,evensplit,FinalRedContrast,FinalGreenContrast,1381.4917056669947,1382.6740324170096,4,051926gm,001,2026-05-19_12h15.54.880,priming,,2026.1.3,60.005910571312505,2026-05-19 12h15.55.199398 -0700,
GR_Congruent_RedCue_RedProbe_Top,GreenGaborBoth.png,RedGaborBoth.png,GreenGaborBoth.png,RedGaborDisappearTop.png,Red.mp3,red,top,86,6,1,,,,1,6,86,56,1382.6897236669902,,,,,,,,,,,,,,,,bottom,,,,,,,,1382.6757847499684,1383.1901094579953,1383.1902746669948,1388.4399542079773,1388.446441875014,1389.6898272499675,1389.6916460419889,1391.123572041979,1391.1252044580178,1392.524132749997,mostlyred,FinalRedContrast,FinalGreenContrast,1392.5250790829887,1393.8739036669722,4,051926gm,001,2026-05-19_12h15.54.880,priming,,2026.1.3,60.005910571312505,2026-05-19 12h15.55.199398 -0700,
GR_Congruent_GreenCue_GreenProbe_Bottom,GreenGaborBoth.png,RedGaborBoth.png,GreenGaborDisappearBottom.png,RedGaborBoth.png,Green.mp3,green,bottom,87,7,1,,,,1,7,87,67,1393.889789458015,,,,,,,,,,,,,,,,bottom,,,,,,,,1393.8757636669907,1394.3400828749873,1394.3402473750175,1399.589884917019,1399.5963156250073,1400.8399462079979,1400.8411786250072,1401.8069982500165,1401.808077958005,1402.7406236670213,mostlyred,FinalRedContrast,FinalGreenContrast,1402.741884582967,1403.7240858330042,4,051926gm,001,2026-05-19_12h15.54.880,priming,,2026.1.3,60.005910571312505,2026-05-19 12h15.55.199398 -0700,
GR_Incongruent_GreenCue_RedProbe_Top,GreenGaborBoth.png,RedGaborBoth.png,GreenGaborBoth.png,RedGaborDisappearTop.png,Green.mp3,green,top,88,8,1,,,,1,8,88,62,1403.7398049170151,,,,,,,,,,,,,,,,bottom,,,,,,,,1403.7242016249802,1404.2068294580095,1404.206990082981,1409.4565829579951,1409.4630101249786,1410.7066647079773,1410.708344542014,1412.7407900419785,1412.7415281669819,1414.2575397500186,mostlyred,FinalRedContrast,FinalGreenContrast,1414.2581829580013,1415.0240832080017,4,051926gm,001,2026-05-19_12h15.54.880,priming,,2026.1.3,60.005910571312505,2026-05-19 12h15.55.199398 -0700,
GR_Congruent_GreenCue_GreenProbe_Bottom,GreenGaborBoth.png,RedGaborBoth.png,GreenGaborDisappearBottom.png,RedGaborBoth.png,Green.mp3,green,bottom,89,9,1,,,,1,9,89,35,1415.0399189579766,,,,,,,,,,,,,,,,bottom,,,,,,,,1415.0241783749661,1415.540641999978,1415.5408274579677,1420.7899739170098,1420.7964582919958,1422.0400355830207,1422.0417312919744,1424.1070939580095,1424.1087120419834,1425.2407616669661,mostlygreen,FinalRedContrast,FinalGreenContrast,1425.241984000022,1426.0909024580033,4,051926gm,001,2026-05-19_12h15.54.880,priming,,2026.1.3,60.005910571312505,2026-05-19 12h15.55.199398 -0700,
GR_Incongruent_RedCue_GreenProbe_Top,GreenGaborBoth.png,RedGaborBoth.png,GreenGaborDisappearTop.png,RedGaborBoth.png,Red.mp3,red,top,90,10,1,,,,1,10,90,36,1426.1065632079844,,,,,,,,,,,,,,,,top,,,,,,,,1426.0926751249935,1426.740463916969,1426.740634249989,1431.9901067499886,1431.9965392500162,1433.2398704579682,1433.2416700419853,1434.6570749579696,1434.6588393329876,1435.4574253750034,mostlygreen,FinalRedContrast,FinalGreenContrast,1435.4585007500136,1436.157606499968,4,051926gm,001,2026-05-19_12h15.54.880,priming,,2026.1.3,60.005910571312505,2026-05-19 12h15.55.199398 -0700,
GR_Congruent_RedCue_RedProbe_Top,GreenGaborBoth.png,RedGaborBoth.png,GreenGaborBoth.png,RedGaborDisappearTop.png,Red.mp3,red,top,91,11,1,,,,1,11,91,40,1436.1732622080017,,,,,,,,,,,,,,,,top,,,,,,,,1436.1576996669755,1436.6069639999769,1436.6071269169915,1441.8567641249974,1441.8631172080059,1443.1068177499692,1443.1079136669869,1444.1572402919992,1444.1586413329933,1445.8409675830044,mostlyred,FinalRedContrast,FinalGreenContrast,1445.8421399999643,1446.4409173749737,4,051926gm,001,2026-05-19_12h15.54.880,priming,,2026.1.3,60.005910571312505,2026-05-19 12h15.55.199398 -0700,
GR_Congruent_GreenCue_GreenProbe_Bottom,GreenGaborBoth.png,RedGaborBoth.png,GreenGaborDisappearBottom.png,RedGaborBoth.png,Green.mp3,green,bottom,92,12,1,,,,1,12,92,27,1446.4566200830159,,,,,,,,,,,,,,,,bottom,,,,,,,,1446.442906833021,1446.9237640419742,1446.9239285420044,1452.1734608749975,1452.1799067499815,1453.4234497079742,1453.4248946249718,1455.1905486669857,1455.1920133329695,1456.391150416981,mostlygreen,FinalRedContrast,FinalGreenContrast,1456.3916941669886,1457.874289624975,4,051926gm,001,2026-05-19_12h15.54.880,priming,,2026.1.3,60.005910571312505,2026-05-19 12h15.55.199398 -0700,
GR_Congruent_RedCue_RedProbe_Bottom,GreenGaborBoth.png,RedGaborBoth.png,GreenGaborBoth.png,RedGaborDisappearBottom.png,Red.mp3,red,bottom,93,13,1,,,,1,13,93,17,1457.8900067500072,,,,,,,,,,,,,,,,bottom,,,,,,,,1457.8759555830038,1458.2737531670136,1458.273919374973,1463.5234878329793,1463.5316762080183,1464.773412999988,1464.7750558329863,1466.123904832988,1466.1249809999717,1467.840951457969,evensplit,FinalRedContrast,FinalGreenContrast,1467.8422052920214,1468.8576169579756,4,051926gm,001,2026-05-19_12h15.54.880,priming,,2026.1.3,60.005910571312505,2026-05-19 12h15.55.199398 -0700,
GR_Incongruent_GreenCue_RedProbe_Top,GreenGaborBoth.png,RedGaborBoth.png,GreenGaborBoth.png,RedGaborDisappearTop.png,Green.mp3,green,top,94,14,1,,,,1,14,94,30,1468.8733876249753,,,,,,,,,,,,,,,,top,,,,,,,,1468.8594973330037,1469.3236818329897,1469.323843249993,1474.573554374976,1474.581162083021,1475.823586167011,1475.8251860829769,1479.6573006249964,1479.6588407920208,1481.0576367920148,mostlyred,FinalRedContrast,FinalGreenContrast,1481.0586186670116,1481.8077611670014,4,051926gm,001,2026-05-19_12h15.54.880,priming,,2026.1.3,60.005910571312505,2026-05-19 12h15.55.199398 -0700,
GR_Incongruent_RedCue_GreenProbe_Top,GreenGaborBoth.png,RedGaborBoth.png,GreenGaborDisappearTop.png,RedGaborBoth.png,Red.mp3,red,top,95,15,1,,,,1,15,95,28,1481.8234584999736,,,,,,,,,,,,,,,,top,,,,,,,,1481.8093685000204,1482.3405810419936,1482.3407440829906,1487.5902232080116,1487.597929749987,1488.8402147919987,1488.8418092919746,1490.1239955829806,1490.1256918750005,1491.5247687919764,mostlyred,FinalRedContrast,FinalGreenContrast,1491.5254387080204,1492.2410424579866,4,051926gm,001,2026-05-19_12h15.54.880,priming,,2026.1.3,60.005910571312505,2026-05-19 12h15.55.199398 -0700,
GR_Incongruent_RedCue_GreenProbe_Bottom,GreenGaborBoth.png,RedGaborBoth.png,GreenGaborDisappearBottom.png,RedGaborBoth.png,Red.mp3,red,bottom,96,16,1,,,,1,16,96,61,1492.2568073750008,,,,,,,,,,,,,,,,bottom,,,,,,,,1492.2411392920185,1492.690473499999,1492.6906378329732,1497.9401748329983,1497.9478415829944,1499.1901490419987,1499.191808042,1500.590656083019,1500.5921350829885,1501.3076426669722,allgreen,FinalRedContrast,FinalGreenContrast,1501.308644499979,1502.2577288330067,4,051926gm,001,2026-05-19_12h15.54.880,priming,,2026.1.3,60.005910571312505,2026-05-19 12h15.55.199398 -0700,
GR_Incongruent_GreenCue_RedProbe_Top,GreenGaborBoth.png,RedGaborBoth.png,GreenGaborBoth.png,RedGaborDisappearTop.png,Green.mp3,green,top,97,17,1,,,,1,17,97,38,1502.2735920830164,,,,,,,,,,,,,,,,top,,,,,,,,1502.259731166996,1502.6571347920108,1502.6573024580139,1507.9070462919772,1507.9145923330216,1509.15701562498,1509.1585681670113,1510.0742850829847,1510.0755960419774,1511.0078676249832,mostlyred,FinalRedContrast,FinalGreenContrast,1511.0089727080194,1511.607935292006,4,051926gm,001,2026-05-19_12h15.54.880,priming,,2026.1.3,60.005910571312505,2026-05-19 12h15.55.199398 -0700,
GR_Congruent_GreenCue_GreenProbe_Top,GreenGaborBoth.png,RedGaborBoth.png,GreenGaborDisappearTop.png,RedGaborBoth.png,Green.mp3,green,top,98,18,1,,,,1,18,98,18,1511.6236171670025,,,,,,,,,,,,,,,,top,,,,,,,,1511.6080314579885,1512.0407085829647,1512.0408736249665,1517.2903703330085,1517.2979648750043,1518.5403791249846,1518.542018499982,1522.174186624994,1522.175143166969,1523.357875082991,mostlygreen,FinalRedContrast,FinalGreenContrast,1523.3588983750087,1524.0078275419655,4,051926gm,001,2026-05-19_12h15.54.880,priming,,2026.1.3,60.005910571312505,2026-05-19 12h15.55.199398 -0700,
RR_non_riv_catch_GreenCue_RedProbe_Top,Blank.png,RedGaborBoth.png,Blank.png,RedGaborDisappearTop.png,Green.mp3,green,top,99,19,1,,,,1,19,99,74,1524.0236400829745,,,,,,,,,,,,,,,,top,,,,,,,,1524.007924332982,1524.5740039579687,1524.5741722499952,1529.8237277920125,1529.830049125012,1531.0736236249795,1531.0749809999834,1531.924089166976,1531.9251191249932,1532.9745114580146,allred,FinalRedContrast,FinalGreenContrast,1532.9756445420207,1534.1245100420201,4,051926gm,001,2026-05-19_12h15.54.880,priming,,2026.1.3,60.005910571312505,2026-05-19 12h15.55.199398 -0700,
GR_Congruent_RedCue_RedProbe_Top,GreenGaborBoth.png,RedGaborBoth.png,GreenGaborBoth.png,RedGaborDisappearTop.png,Red.mp3,red,top,100,20,1,,,,1,20,100,8,1534.1402115420206,,,,,,,,,,,,,,,,top,,,,,,,,1534.126083458017,1665.474762458005,1665.474957917002,1670.7243590420112,1670.7342110419995,1671.9743872919935,1671.975992541993,1674.741446250002,1674.7421829999657,1675.7251909169718,mostlygreen,FinalRedContrast,FinalGreenContrast,1675.7262628750177,1677.9752488330123,3,051926gm,001,2026-05-19_12h15.54.880,priming,,2026.1.3,60.005910571312505,2026-05-19 12h15.55.199398 -0700,
GR_Incongruent_RedCue_GreenProbe_Top,GreenGaborBoth.png,RedGaborBoth.png,GreenGaborDisappearTop.png,RedGaborBoth.png,Red.mp3,red,top,101,21,1,,,,1,21,101,4,1677.9909943749662,,,,,,,,,,,,,,,,top,,,,,,,,1677.975428832986,1679.024633666966,1679.0247987500043,1684.2743972499738,1684.2822784169693,1685.5244152499945,1685.525839000009,1687.4081029999652,1687.409679125005,1688.8918652079883,mostlyred,FinalRedContrast,FinalGreenContrast,1688.892425249971,1690.5917927079718,4,051926gm,001,2026-05-19_12h15.54.880,priming,,2026.1.3,60.005910571312505,2026-05-19 12h15.55.199398 -0700,
GR_Congruent_RedCue_RedProbe_Bottom,GreenGaborBoth.png,RedGaborBoth.png,GreenGaborBoth.png,RedGaborDisappearBottom.png,Red.mp3,red,bottom,102,22,1,,,,1,22,102,9,1690.6076487500104,,,,,,,,,,,,,,,,bottom,,,,,,,,1690.5918877499644,1691.0579157500179,1691.058082167001,1696.307716167008,1696.3154309999663,1697.5576548749814,1697.5594210830168,1699.624721958011,1699.6261735829758,1700.7918268750072,mostlyred,FinalRedContrast,FinalGreenContrast,1700.792510374973,1701.841915416997,4,051926gm,001,2026-05-19_12h15.54.880,priming,,2026.1.3,60.005910571312505,2026-05-19 12h15.55.199398 -0700,
RR_non_riv_catch_GreenCue_RedProbe_Bottom,Blank.png,RedGaborBoth.png,Blank.png,RedGaborDisappearBottom.png,Green.mp3,green,bottom,103,23,1,,,,1,23,103,75,1701.8577351669664,,,,,,,,,,,,,,,,bottom,,,,,,,,1701.8439887919812,1702.1748420830118,1702.1750057919999,1707.4244704169687,1707.4307301670196,1708.6745907079894,1708.6765891669784,1709.5581863329862,1709.5594018750126,1711.3586949579767,allred,FinalRedContrast,FinalGreenContrast,1711.3590122919995,1714.0919341249974,3,051926gm,001,2026-05-19_12h15.54.880,priming,,2026.1.3,60.005910571312505,2026-05-19 12h15.55.199398 -0700,
GR_Congruent_RedCue_RedProbe_Bottom,GreenGaborBoth.png,RedGaborBoth.png,GreenGaborBoth.png,RedGaborDisappearBottom.png,Red.mp3,red,bottom,104,24,1,,,,1,24,104,33,1714.1077485000133,,,,,,,,,,,,,,,,bottom,,,,,,,,1714.0935843329644,1714.4917890420184,1714.4919728749665,1719.7410420000087,1719.747327250021,1720.9911560830078,1720.992422166979,1721.8748989999876,1721.8765116250142,1723.291936583002,mostlyred,FinalRedContrast,FinalGreenContrast,1723.2930338329752,1724.9089831250021,4,051926gm,001,2026-05-19_12h15.54.880,priming,,2026.1.3,60.005910571312505,2026-05-19 12h15.55.199398 -0700,
GR_Incongruent_GreenCue_RedProbe_Top,GreenGaborBoth.png,RedGaborBoth.png,GreenGaborBoth.png,RedGaborDisappearTop.png,Green.mp3,green,top,105,25,1,,,,1,25,105,14,1724.9243343329872,,,,,,,,,,,,,,,,top,,,,,,,,1724.9107587499893,1726.558125999989,1726.5582898749853,1731.8078337499755,1731.8144449579995,1733.0577998749795,1733.0591587499948,1734.0250330829876,1734.0263664170052,1735.3755056670052,mostlyred,FinalRedContrast,FinalGreenContrast,1735.376146042021,1736.3920822920045,4,051926gm,001,2026-05-19_12h15.54.880,priming,,2026.1.3,60.005910571312505,2026-05-19 12h15.55.199398 -0700,
GR_Incongruent_GreenCue_RedProbe_Bottom,GreenGaborBoth.png,RedGaborBoth.png,GreenGaborBoth.png,RedGaborDisappearBottom.png,Green.mp3,green,bottom,106,26,1,,,,1,26,106,23,1736.407820458,,,,,,,,,,,,,,,,bottom,,,,,,,,1736.392180541996,1736.7748823749716,1736.7750477080117,1742.0246120420052,1742.0309750830056,1743.2746102079982,1743.275889749988,1745.6083075829665,1745.6097997499746,1746.54210612498,mostlyred,FinalRedContrast,FinalGreenContrast,1746.5432514169952,1747.4754662920022,4,051926gm,001,2026-05-19_12h15.54.880,priming,,2026.1.3,60.005910571312505,2026-05-19 12h15.55.199398 -0700,
GR_Incongruent_RedCue_GreenProbe_Bottom,GreenGaborBoth.png,RedGaborBoth.png,GreenGaborDisappearBottom.png,RedGaborBoth.png,Red.mp3,red,bottom,107,27,1,,,,1,27,107,29,1747.4911175419693,,,,,,,,,,,,,,,,bottom,,,,,,,,1747.4771062079817,1747.9415935419966,1747.9417614169652,1753.1911655419972,1753.1985131250112,1754.441314333002,1754.4425917919725,1755.4250310829957,1755.4265851670061,1758.2587087079883,mostlygreen,FinalRedContrast,FinalGreenContrast,1758.2596236249665,1759.3087506250013,4,051926gm,001,2026-05-19_12h15.54.880,priming,,2026.1.3,60.005910571312505,2026-05-19 12h15.55.199398 -0700,
GR_Incongruent_GreenCue_RedProbe_Bottom,GreenGaborBoth.png,RedGaborBoth.png,GreenGaborBoth.png,RedGaborDisappearBottom.png,Green.mp3,green,bottom,108,28,1,,,,1,28,108,47,1759.3245241249679,,,,,,,,,,,,,,,,bottom,,,,,,,,1759.3106120419689,1759.7747937499662,1759.7749572499888,1765.0246238749824,1765.0310259580147,1766.2747645829804,1766.2764118330088,1768.1251985419658,1768.1262626249809,1768.9922973749926,evensplit,FinalRedContrast,FinalGreenContrast,1768.9932472080109,1770.308971541992,4,051926gm,001,2026-05-19_12h15.54.880,priming,,2026.1.3,60.005910571312505,2026-05-19 12h15.55.199398 -0700,
GR_Incongruent_GreenCue_RedProbe_Bottom,GreenGaborBoth.png,RedGaborBoth.png,GreenGaborBoth.png,RedGaborDisappearBottom.png,Green.mp3,green,bottom,109,29,1,,,,1,29,109,7,1770.3246565830195,,,,,,,,,,,,,,,,bottom,,,,,,,,1770.3090686670039,1770.7583632500027,1770.7585252919816,1776.008059167012,1776.0144149999833,1777.2580069170217,1777.2596748329815,1778.2250627499889,1778.2265720830183,1779.5421997079975,evensplit,FinalRedContrast,FinalGreenContrast,1779.5432824579766,1780.4254915830097,4,051926gm,001,2026-05-19_12h15.54.880,priming,,2026.1.3,60.005910571312505,2026-05-19 12h15.55.199398 -0700,
GR_Congruent_GreenCue_GreenProbe_Top,GreenGaborBoth.png,RedGaborBoth.png,GreenGaborDisappearTop.png,RedGaborBoth.png,Green.mp3,green,top,110,30,1,,,,1,30,110,2,1780.4413178749965,,,,,,,,,,,,,,,,top,,,,,,,,1780.4255870829802,1780.6919892079895,1780.6921896249987,1785.9413807920064,1785.9490649999934,1787.1914074579836,1787.1933769169846,1788.1418548329966,1788.1428193749744,1789.6255662500043,mostlygreen,FinalRedContrast,FinalGreenContrast,1789.626693875005,1791.0421678749844,4,051926gm,001,2026-05-19_12h15.54.880,priming,,2026.1.3,60.005910571312505,2026-05-19 12h15.55.199398 -0700,
GR_Incongruent_GreenCue_RedProbe_Top,GreenGaborBoth.png,RedGaborBoth.png,GreenGaborBoth.png,RedGaborDisappearTop.png,Green.mp3,green,top,111,31,1,,,,1,31,111,70,1791.0579913749825,,,,,,,,,,,,,,,,top,,,,,,,,1791.0422629999812,1791.8083911249996,1791.8085537499865,1797.0580496250186,1797.0644180420204,1798.308205917012,1798.3098961670185,1799.3587986669736,1799.3601034170133,1803.2923737919773,evensplit,FinalRedContrast,FinalGreenContrast,1803.2929438329884,1804.7091181249707,4,051926gm,001,2026-05-19_12h15.54.880,priming,,2026.1.3,60.005910571312505,2026-05-19 12h15.55.199398 -0700,
GR_Incongruent_RedCue_GreenProbe_Top,GreenGaborBoth.png,RedGaborBoth.png,GreenGaborDisappearTop.png,RedGaborBoth.png,Red.mp3,red,top,112,32,1,,,,1,32,112,52,1804.724795874965,,,,,,,,,,,,,,,,top,,,,,,,,1804.710696916969,1806.0251710420125,1806.0253378750058,1811.2748697919887,1811.2813572919695,1812.5248437499977,1812.5262864580145,1813.2920365830068,1813.2927809170214,1814.4089554169914,mostlygreen,FinalRedContrast,FinalGreenContrast,1814.410222208011,1815.492698957969,4,051926gm,001,2026-05-19_12h15.54.880,priming,,2026.1.3,60.005910571312505,2026-05-19 12h15.55.199398 -0700,
GR_Incongruent_RedCue_GreenProbe_Top,GreenGaborBoth.png,RedGaborBoth.png,GreenGaborDisappearTop.png,RedGaborBoth.png,Red.mp3,red,top,113,33,1,,,,1,33,113,20,1815.5081424170057,,,,,,,,,,,,,,,,top,,,,,,,,1815.4928022079985,1823.0755642500008,1823.075769292016,1828.32484854199,1828.3312473749975,1829.574940499966,1829.57668620802,1830.642114666989,1830.6435173749924,1831.2091331669944,mostlyred,FinalRedContrast,FinalGreenContrast,1831.2102505830117,1832.542459958,4,051926gm,001,2026-05-19_12h15.54.880,priming,,2026.1.3,60.005910571312505,2026-05-19 12h15.55.199398 -0700,
GR_Incongruent_RedCue_GreenProbe_Bottom,GreenGaborBoth.png,RedGaborBoth.png,GreenGaborDisappearBottom.png,RedGaborBoth.png,Red.mp3,red,bottom,114,34,1,,,,1,34,114,45,1832.5581570420181,,,,,,,,,,,,,,,,top,,,,,,,,1832.5425650830148,1832.991894042003,1832.992058541975,1838.2416632079985,1838.2480438330094,1839.4916778329643,1839.4933494169964,1848.2254088330083,1848.2270236249897,1850.042432874965,mostlyred,FinalRedContrast,FinalGreenContrast,1850.0435229580035,1853.959137458005,4,051926gm,001,2026-05-19_12h15.54.880,priming,,2026.1.3,60.005910571312505,2026-05-19 12h15.55.199398 -0700,
GR_Congruent_GreenCue_GreenProbe_Top,GreenGaborBoth.png,RedGaborBoth.png,GreenGaborDisappearTop.png,RedGaborBoth.png,Green.mp3,green,top,115,35,1,,,,1,35,115,10,1853.9748897500103,,,,,,,,,,,,,,,,top,,,,,,,,1853.9611307079904,1870.8754103750107,1870.8755778750055,1876.1251439579646,1876.1316109169857,1877.3751819580211,1877.3768014169764,1878.6921618750202,1878.693841499975,1880.9759943329846,allgreen,FinalRedContrast,FinalGreenContrast,1880.9771760419826,1883.4926176249865,4,051926gm,001,2026-05-19_12h15.54.880,priming,,2026.1.3,60.005910571312505,2026-05-19 12h15.55.199398 -0700,
GR_Congruent_RedCue_RedProbe_Top,GreenGaborBoth.png,RedGaborBoth.png,GreenGaborBoth.png,RedGaborDisappearTop.png,Red.mp3,red,top,116,36,1,,,,1,36,116,24,1883.5085088749765,,,,,,,,,,,,,,,,bottom,,,,,,,,1883.4942811669898,1884.5587349999696,1884.5589010830154,1889.8084544169833,1889.8148892919999,1891.0584811249864,1891.0603255829774,1895.9089648330119,1895.9103298750124,1898.7594195419806,allgreen,FinalRedContrast,FinalGreenContrast,1898.7601877499837,1901.1927328329766,4,051926gm,001,2026-05-19_12h15.54.880,priming,,2026.1.3,60.005910571312505,2026-05-19 12h15.55.199398 -0700,
GR_Congruent_GreenCue_GreenProbe_Top,GreenGaborBoth.png,RedGaborBoth.png,GreenGaborDisappearTop.png,RedGaborBoth.png,Green.mp3,green,top,117,37,1,,,,1,37,117,26,1901.2085067079752,,,,,,,,,,,,,,,,top,,,,,,,,1901.1946129580028,1906.9589328329894,1906.959095041966,1912.2085034999764,1912.2149617919931,1913.4586101669702,1913.4600010829745,1914.6590160829946,1914.6605814169743,1917.4927098749904,mostlyred,FinalRedContrast,FinalGreenContrast,1917.4937459999928,1919.2094495000201,4,051926gm,001,2026-05-19_12h15.54.880,priming,,2026.1.3,60.005910571312505,2026-05-19 12h15.55.199398 -0700,
GR_Incongruent_RedCue_GreenProbe_Bottom,GreenGaborBoth.png,RedGaborBoth.png,GreenGaborDisappearBottom.png,RedGaborBoth.png,Red.mp3,red,bottom,118,38,1,,,,1,38,118,37,1919.2251629999955,,,,,,,,,,,,,,,,bottom,,,,,,,,1919.2111611670116,1919.8255342919729,1919.825697458,1925.0751954999869,1925.083601708,1926.3252605000162,1926.326799708011,1929.39239408297,1929.394072874973,1931.5261752079823,evensplit,FinalRedContrast,FinalGreenContrast,1931.5267244579736,1940.8765789580066,4,051926gm,001,2026-05-19_12h15.54.880,priming,,2026.1.3,60.005910571312505,2026-05-19 12h15.55.199398 -0700,
GR_Congruent_GreenCue_GreenProbe_Bottom,GreenGaborBoth.png,RedGaborBoth.png,GreenGaborDisappearBottom.png,RedGaborBoth.png,Green.mp3,green,bottom,119,39,1,,,,1,39,119,19,1940.8918961670133,,,,,,,,,,,,,,,,bottom,,,,,,,,1940.878338999988,1941.1756900000037,1941.1758528329665,1946.4253680420225,1946.4337674999842,1947.6754267080105,1947.6771754999645,1948.859507541987,1948.8603752920171,1949.8594618749921,mostlygreen,FinalRedContrast,FinalGreenContrast,1949.8607795420103,1950.6761504579918,4,051926gm,001,2026-05-19_12h15.54.880,priming,,2026.1.3,60.005910571312505,2026-05-19 12h15.55.199398 -0700,
GR_Congruent_RedCue_RedProbe_Bottom,GreenGaborBoth.png,RedGaborBoth.png,GreenGaborBoth.png,RedGaborDisappearBottom.png,Red.mp3,red,bottom,120,40,1,,,,1,40,120,57,1950.691980833013,,,,,,,,,,,,,,,,bottom,,,,,,,,1950.6778927500127,1951.1590641249786,1951.1592338329647,1956.4087183749652,1956.4162190419738,1957.6586215000134,1957.660652999999,1958.9090572500136,1958.9105419169646,1960.892934500007,mostlygreen,FinalRedContrast,FinalGreenContrast,1960.8935091249878,1962.7596425419906,4,051926gm,001,2026-05-19_12h15.54.880,priming,,2026.1.3,60.005910571312505,2026-05-19 12h15.55.199398 -0700,
GR_Congruent_GreenCue_GreenProbe_Top,GreenGaborBoth.png,RedGaborBoth.png,GreenGaborDisappearTop.png,RedGaborBoth.png,Green.mp3,green,top,121,41,1,,,,1,41,121,50,1962.7754712919705,,,,,,,,,,,,,,,,top,,,,,,,,1962.7614674579818,1963.692451082985,1963.692614791973,1968.942217541975,1968.9491903749877,1970.1920737919863,1970.1936550419778,1970.7925562079763,1970.794019999972,1972.4601038330002,mostlygreen,FinalRedContrast,FinalGreenContrast,1972.4604326249682,1974.0601273329812,4,051926gm,001,2026-05-19_12h15.54.880,priming,,2026.1.3,60.005910571312505,2026-05-19 12h15.55.199398 -0700,
GR_Incongruent_GreenCue_RedProbe_Bottom,GreenGaborBoth.png,RedGaborBoth.png,GreenGaborBoth.png,RedGaborDisappearBottom.png,Green.mp3,green,bottom,122,42,1,,,,1,42,122,15,1974.0754918329767,,,,,,,,,,,,,,,,bottom,,,,,,,,1974.0602344999788,1974.4257821249776,1974.4259450419922,1979.6756437919685,1979.6819248329848,1980.9255454170052,1980.926845583017,1982.0592421250185,1982.0608821670176,1983.8930281249923,evensplit,FinalRedContrast,FinalGreenContrast,1983.8934886250063,1985.2930431250134,4,051926gm,001,2026-05-19_12h15.54.880,priming,,2026.1.3,60.005910571312505,2026-05-19 12h15.55.199398 -0700,
RR_non_riv_catch_RedCue_RedProbe_Top,Blank.png,RedGaborBoth.png,Blank.png,RedGaborDisappearTop.png,Red.mp3,red,top,123,43,1,,,,1,43,123,72,1985.3088304579724,,,,,,,,,,,,,,,,top,,,,,,,,1985.294677332975,1985.9257874999894,1985.9259498330066,1991.1755956250126,1991.182120957994,1992.425536499999,1992.4271470829844,1993.0759659169707,1993.0776564169792,1994.3931799579877,allred,FinalRedContrast,FinalGreenContrast,1994.3937569999835,1995.9598209579708,4,051926gm,001,2026-05-19_12h15.54.880,priming,,2026.1.3,60.005910571312505,2026-05-19 12h15.55.199398 -0700,
GR_Congruent_GreenCue_GreenProbe_Bottom,GreenGaborBoth.png,RedGaborBoth.png,GreenGaborDisappearBottom.png,RedGaborBoth.png,Green.mp3,green,bottom,124,44,1,,,,1,44,124,3,1995.975549167022,,,,,,,,,,,,,,,,bottom,,,,,,,,1995.96182425,1996.4592577079893,1996.4594247500063,2001.7089416249655,2001.716483416967,2002.958892167022,2002.9607840420213,2003.575968582998,2003.5774775000173,2006.44319970801,mostlygreen,FinalRedContrast,FinalGreenContrast,2006.4440100420034,2008.0768520419952,4,051926gm,001,2026-05-19_12h15.54.880,priming,,2026.1.3,60.005910571312505,2026-05-19 12h15.55.199398 -0700,
RR_non_riv_catch_RedCue_RedProbe_Bottom,Blank.png,RedGaborBoth.png,Blank.png,RedGaborDisappearBottom.png,Red.mp3,red,bottom,125,45,1,,,,1,45,125,73,2008.0921711669653,,,,,,,,,,,,,,,,bottom,,,,,,,,2008.0785362920142,2008.4426142079756,2008.4427804169827,2013.692360666988,2013.6977027499815,2014.9424235000042,2014.9439879169804,2016.4927666669828,2016.4935865419684,2017.7597640000167,allred,FinalRedContrast,FinalGreenContrast,2017.7609616669943,2018.909817708016,4,051926gm,001,2026-05-19_12h15.54.880,priming,,2026.1.3,60.005910571312505,2026-05-19 12h15.55.199398 -0700,
GR_Congruent_RedCue_RedProbe_Bottom,GreenGaborBoth.png,RedGaborBoth.png,GreenGaborBoth.png,RedGaborDisappearBottom.png,Red.mp3,red,bottom,126,46,1,,,,1,46,126,41,2018.9255838749814,,,,,,,,,,,,,,,,bottom,,,,,,,,2018.9099134579883,2019.2091981669655,2019.2093623330002,2024.4590252079652,2024.4653464580188,2025.7090041670017,2025.7108646669658,2027.9762182079721,2027.9777993329917,2029.1599347500014,evensplit,FinalRedContrast,FinalGreenContrast,2029.1607796669705,2029.8099482919788,4,051926gm,001,2026-05-19_12h15.54.880,priming,,2026.1.3,60.005910571312505,2026-05-19 12h15.55.199398 -0700,
GR_Incongruent_RedCue_GreenProbe_Top,GreenGaborBoth.png,RedGaborBoth.png,GreenGaborDisappearTop.png,RedGaborBoth.png,Red.mp3,red,top,127,47,1,,,,1,47,127,68,2029.8257245830027,,,,,,,,,,,,,,,,top,,,,,,,,2029.8100801249966,2030.1427013750072,2030.1428659579833,2035.3924970420194,2035.3989047500072,2036.6425353749655,2036.644078249985,2038.7928440420073,2038.793938332994,2039.726538292016,mostlyred,FinalRedContrast,FinalGreenContrast,2039.7277235420188,2041.9932934169774,4,051926gm,001,2026-05-19_12h15.54.880,priming,,2026.1.3,60.005910571312505,2026-05-19 12h15.55.199398 -0700,
GR_Incongruent_RedCue_GreenProbe_Bottom,GreenGaborBoth.png,RedGaborBoth.png,GreenGaborDisappearBottom.png,RedGaborBoth.png,Red.mp3,red,bottom,128,48,1,,,,1,48,128,5,2042.0090403329814,,,,,,,,,,,,,,,,bottom,,,,,,,,2041.9933910419932,2042.409388332977,2042.4095539579866,2047.659077999997,2047.665468125022,2048.9092197499704,2048.910650166974,2049.7928627919755,2049.7943866669666,2051.6264940829715,mostlygreen,FinalRedContrast,FinalGreenContrast,2051.6275954169687,2053.009905166982,4,051926gm,001,2026-05-19_12h15.54.880,priming,,2026.1.3,60.005910571312505,2026-05-19 12h15.55.199398 -0700,
GR_Congruent_RedCue_RedProbe_Top,GreenGaborBoth.png,RedGaborBoth.png,GreenGaborBoth.png,RedGaborDisappearTop.png,Red.mp3,red,top,129,49,1,,,,1,49,129,64,2053.0256659580045,,,,,,,,,,,,,,,,top,,,,,,,,2053.010000957991,2053.426064624975,2053.4262324169977,2058.6759537920007,2058.682307375013,2059.926011041971,2059.9272986669675,2061.7929538330063,2061.794546707999,2065.193434750021,mostlyred,FinalRedContrast,FinalGreenContrast,2065.194527500018,2067.0100399999646,4,051926gm,001,2026-05-19_12h15.54.880,priming,,2026.1.3,60.005910571312505,2026-05-19 12h15.55.199398 -0700,
GR_Incongruent_GreenCue_RedProbe_Top,GreenGaborBoth.png,RedGaborBoth.png,GreenGaborBoth.png,RedGaborDisappearTop.png,Green.mp3,green,top,130,50,1,,,,1,50,130,22,2067.025841374998,,,,,,,,,,,,,,,,top,,,,,,,,2067.0119208749966,2071.559545832977,2071.55971279199,2076.8093441249803,2076.8159763750155,2078.0592325829784,2078.061101124971,2079.709677041974,2079.7103967079893,2081.9101262079785,mostlyred,FinalRedContrast,FinalGreenContrast,2081.910745333007,2083.4100164999836,4,051926gm,001,2026-05-19_12h15.54.880,priming,,2026.1.3,60.005910571312505,2026-05-19 12h15.55.199398 -0700,
GG_non_riv_catch_RedCue_GreenProbe_Top,GreenGaborBoth.png,Blank.png,GreenGaborDisappearTop.png,Blank.png,Red.mp3,red,top,131,51,1,,,,1,51,131,76,2083.4258074579993,,,,,,,,,,,,,,,,top,,,,,,,,2083.4116455829935,2083.6598075419897,2083.659979207965,2088.9092007079744,2088.915955042001,2090.1593213329907,2090.1605934579857,2092.076414457988,2092.0779877919704,2093.3268784169923,allgreen,FinalRedContrast,FinalGreenContrast,2093.327979707974,2094.6768905830104,4,051926gm,001,2026-05-19_12h15.54.880,priming,,2026.1.3,60.005910571312505,2026-05-19 12h15.55.199398 -0700,
GR_Congruent_GreenCue_GreenProbe_Top,GreenGaborBoth.png,RedGaborBoth.png,GreenGaborDisappearTop.png,RedGaborBoth.png,Green.mp3,green,top,132,52,1,,,,1,52,132,34,2094.692634958017,,,,,,,,,,,,,,,,top,,,,,,,,2094.6786361669656,2095.2096447499935,2095.209806207975,2100.4593686250155,2100.468154000002,2101.7094200829742,2101.7105782500003,2102.3096424579853,2102.311276332999,2103.626836541982,allgreen,FinalRedContrast,FinalGreenContrast,2103.6279207500047,2104.4435572079965,4,051926gm,001,2026-05-19_12h15.54.880,priming,,2026.1.3,60.005910571312505,2026-05-19 12h15.55.199398 -0700,
GG_non_riv_catch_GreenCue_GreenProbe_Bottom,GreenGaborBoth.png,Blank.png,GreenGaborDisappearBottom.png,Blank.png,Green.mp3,green,bottom,133,53,1,,,,1,53,133,79,2104.4593364999746,,,,,,,,,,,,,,,,bottom,,,,,,,,2104.4436556249857,2104.8599825829733,2104.8601749169757,2110.109416041989,2110.1156059170025,2111.3592311670072,2111.3610415830044,2112.209662624984,2112.21115524997,2113.1935614999966,allgreen,FinalRedContrast,FinalGreenContrast,2113.1942590419785,2113.910461707972,4,051926gm,001,2026-05-19_12h15.54.880,priming,,2026.1.3,60.005910571312505,2026-05-19 12h15.55.199398 -0700,
GR_Incongruent_GreenCue_RedProbe_Top,GreenGaborBoth.png,RedGaborBoth.png,GreenGaborBoth.png,RedGaborDisappearTop.png,Green.mp3,green,top,134,54,1,,,,1,54,134,54,2113.9260471250163,,,,,,,,,,,,,,,,top,,,,,,,,2113.9106232500053,2114.343087541987,2114.3432587920106,2119.592696124979,2119.600129792001,2120.8427689169766,2120.8440276249894,2124.626621500007,2124.62815449998,2126.176920333004,allgreen,FinalRedContrast,FinalGreenContrast,2126.1779327080003,2126.677051333012,4,051926gm,001,2026-05-19_12h15.54.880,priming,,2026.1.3,60.005910571312505,2026-05-19 12h15.55.199398 -0700,
GR_Incongruent_GreenCue_RedProbe_Bottom,GreenGaborBoth.png,RedGaborBoth.png,GreenGaborBoth.png,RedGaborDisappearBottom.png,Green.mp3,green,bottom,135,55,1,,,,1,55,135,39,2126.692756042001,,,,,,,,,,,,,,,,bottom,,,,,,,,2126.677145958005,2127.143159041996,2127.143324124976,2132.3928267079755,2132.4003049170133,2133.6428420830052,2133.6440943329944,2135.660158541985,2135.66061237501,2137.543618457974,mostlygreen,FinalRedContrast,FinalGreenContrast,2137.5446465419955,2138.3435817079735,4,051926gm,001,2026-05-19_12h15.54.880,priming,,2026.1.3,60.005910571312505,2026-05-19 12h15.55.199398 -0700,
GR_Incongruent_RedCue_GreenProbe_Top,GreenGaborBoth.png,RedGaborBoth.png,GreenGaborDisappearTop.png,RedGaborBoth.png,Red.mp3,red,top,136,56,1,,,,1,56,136,12,2138.3594230830204,,,,,,,,,,,,,,,,top,,,,,,,,2138.3452444580034,2138.7098115829867,2138.709979999985,2143.9595013749786,2143.9659589999937,2145.2095087079797,2145.211402792018,2147.8265978330164,2147.828132416995,2149.1436824579723,allgreen,FinalRedContrast,FinalGreenContrast,2149.144930750015,2150.7103052919847,4,051926gm,001,2026-05-19_12h15.54.880,priming,,2026.1.3,60.005910571312505,2026-05-19 12h15.55.199398 -0700,
GR_Congruent_RedCue_RedProbe_Top,GreenGaborBoth.png,RedGaborBoth.png,GreenGaborBoth.png,RedGaborDisappearTop.png,Red.mp3,red,top,137,57,1,,,,1,57,137,0,2150.726010208018,,,,,,,,,,,,,,,,top,,,,,,,,2150.7104024169967,2151.059824416996,2151.059986750013,2156.3095999999787,2156.3161650419934,2157.55963087501,2157.5612579169683,2160.1935708749807,2160.1950743329944,2161.810343457968,mostlygreen,FinalRedContrast,FinalGreenContrast,2161.8115610419773,2162.4104263749905,4,051926gm,001,2026-05-19_12h15.54.880,priming,,2026.1.3,60.005910571312505,2026-05-19 12h15.55.199398 -0700,
