label,LstartingStim,RstartingStim,LvisualStim,RvisualStim,audioCue,visualCue,probe_loc,thisN,thisTrialN,thisRepN,staircase.thisTrialN,staircase.stepSize,staircase.intensity,trials.thisRepN,trials.thisTrialN,trials.thisN,trials.thisIndex,thisRow.t,notes,piloting,stim offset,continue_resp.keys,continue_resp.rt,continue_resp.duration,fixation.started,fixation.stopped,greenContrast,redContrast,adjusted_contrast.started,adjusted_contrast.stopped,staircase_response.started,staircase_response.stopped,stair_response,probe_response,staircase.response,prevTrial,isRed,isReversal,cumReversal,contrastArray,contrastAverage,start_trial.started,start_trial.stopped,cue.started,cue.stopped,probe.started,probe.stopped,probe_response.started,probe_response.stopped,subjective_response.started,subjective_response.stopped,subj_response,RedContrast,GreenContrast,vividness_response.started,vividness_response.stopped,vivid_response,participant,session,date,expName,expVersion,psychopyVersion,frameRate,expStart,
,,,,,,,,,,,,,,,,,,,,False,0.33799999999999997,,,,,,,,,,,,,,,,,,,,,,,,,,,,,,,,,,,,,052026gb,001,2026-05-20_10h16.29.999,priming,,2026.1.3,59.996294980563626,2026-05-20 10h16.30.307704 -0700,
,,,,,,,,,,,,,,,,,,,,,,space,29.55901637399802,None,,,,,,,,,,,,,,,,,,,,,,,,,,,,,,,,,,052026gb,001,2026-05-20_10h16.29.999,priming,,2026.1.3,59.996294980563626,2026-05-20 10h16.30.307704 -0700,
,,,,,,,,,,,0,0.2,0.5,,,,,51.38569395802915,,,,,,,51.36978716700105,52.3689684169949,0.5,0.5,52.375834042031784,54.11895504203858,54.122611583035905,58.96974904200761,mostlyred,red,1,1000,1,0,0,[],0,,,,,,,,,,,,,,,,,052026gb,001,2026-05-20_10h16.29.999,priming,,2026.1.3,59.996294980563626,2026-05-20 10h16.30.307704 -0700,
,,,,,,,,,,,1,0.1,0.3,,,,,58.985572375007905,,,,,,,58.970003750000615,59.9689410830033,0.7,0.3,59.972540125017986,61.71900845802156,61.720771833031904,65.5031811670051,allgreen,green,0,1,0,1,1,[],0,,,,,,,,,,,,,,,,,052026gb,001,2026-05-20_10h16.29.999,priming,,2026.1.3,59.996294980563626,2026-05-20 10h16.30.307704 -0700,
,,,,,,,,,,,2,0.1,0.4,,,,,65.51887066703057,,,,,,,65.50342833303148,66.50236312503694,0.6,0.4,66.50590537500102,68.25229354202747,68.25370441703126,70.20311816700269,mostlyred,red,1,0,1,1,2,[],0,,,,,,,,,,,,,,,,,052026gb,001,2026-05-20_10h16.29.999,priming,,2026.1.3,59.996294980563626,2026-05-20 10h16.30.307704 -0700,
,,,,,,,,,,,3,0.05,0.30000000000000004,,,,,70.2189855420147,,,,,,,70.20336479198886,71.20247158303391,0.7,0.30000000000000004,71.20600470801583,72.95241941703716,72.95401408302132,75.46989570802543,mostlygreen,green,0,1,0,1,3,[],0,,,,,,,,,,,,,,,,,052026gb,001,2026-05-20_10h16.29.999,priming,,2026.1.3,59.996294980563626,2026-05-20 10h16.30.307704 -0700,
,,,,,,,,,,,4,0.05,0.35000000000000003,,,,,75.48577983299037,,,,,,,75.47015524999006,76.46911695803283,0.6499999999999999,0.35000000000000003,76.47262962500099,78.2191541250213,78.2208663750207,79.91985037503764,mostlygreen,green,0,0,0,0,3,[],0,,,,,,,,,,,,,,,,,052026gb,001,2026-05-20_10h16.29.999,priming,,2026.1.3,59.996294980563626,2026-05-20 10h16.30.307704 -0700,
,,,,,,,,,,,5,0.05,0.4,,,,,79.93570645799628,,,,,,,79.92009595799027,80.91913774999557,0.6,0.4,80.92265245801536,82.66914954199456,82.6707830830128,83.71987075003562,mostlygreen,green,0,0,0,0,3,[],0,,,,,,,,,,,,,,,,,052026gb,001,2026-05-20_10h16.29.999,priming,,2026.1.3,59.996294980563626,2026-05-20 10h16.30.307704 -0700,
,,,,,,,,,,,6,0.05,0.45,,,,,83.73575183301,,,,,,,83.72011095803464,84.71914000000106,0.55,0.45,84.72256354201818,86.469084958022,86.47086504200706,89.85320700000739,mostlyred,red,1,0,1,1,4,[],0,,,,,,,,,,,,,,,,,052026gb,001,2026-05-20_10h16.29.999,priming,,2026.1.3,59.996294980563626,2026-05-20 10h16.30.307704 -0700,
,,,,,,,,,,,7,0.025,0.4,,,,,89.86906724999426,,,,,,,89.85348908300512,90.85252725001192,0.6,0.4,90.85598258301616,92.60253137501422,92.60424399998737,93.41985620802734,mostlygreen,green,0,1,0,1,5,[],0,,,,,,,,,,,,,,,,,052026gb,001,2026-05-20_10h16.29.999,priming,,2026.1.3,59.996294980563626,2026-05-20 10h16.30.307704 -0700,
,,,,,,,,,,,8,0.025,0.42500000000000004,,,,,93.43573058303446,,,,,,,93.42010041698813,94.41914708301192,0.575,0.42500000000000004,94.42262691701762,96.169183082995,96.17099350003991,96.86987141700229,mostlygreen,green,0,0,0,0,5,[],0,,,,,,,,,,,,,,,,,052026gb,001,2026-05-20_10h16.29.999,priming,,2026.1.3,59.996294980563626,2026-05-20 10h16.30.307704 -0700,
,,,,,,,,,,,9,0.025,0.45000000000000007,,,,,96.88579458300956,,,,,,,96.87011541699758,97.86916445801035,0.5499999999999999,0.45000000000000007,97.87259304203326,99.61911162501201,99.62089729198487,100.33658837503754,mostlyred,red,1,0,1,1,6,[0.45000000000000007],0.45000000000000007,,,,,,,,,,,,,,,,,052026gb,001,2026-05-20_10h16.29.999,priming,,2026.1.3,59.996294980563626,2026-05-20 10h16.30.307704 -0700,
,,,,,,,,,,,10,0.025,0.42500000000000004,,,,,100.3524312080117,,,,,,,100.33683991699945,101.33583204203751,0.575,0.42500000000000004,101.33927724999376,103.08578833303181,103.08722816698719,104.6865882499842,mostlygreen,green,0,1,0,1,7,"[0.45000000000000007, 0.42500000000000004]",0.43750000000000006,,,,,,,,,,,,,,,,,052026gb,001,2026-05-20_10h16.29.999,priming,,2026.1.3,59.996294980563626,2026-05-20 10h16.30.307704 -0700,
,,,,,,,,,,,11,0.025,0.45000000000000007,,,,,104.70256762503413,,,,,,,104.68683287501335,105.6859115830157,0.5499999999999999,0.45000000000000007,105.6893307500286,107.43595312500838,107.43734845798463,108.47007208300056,mostlyred,red,1,0,1,1,8,"[0.45000000000000007, 0.42500000000000004, 0.45000000000000007]",0.4416666666666667,,,,,,,,,,,,,,,,,052026gb,001,2026-05-20_10h16.29.999,priming,,2026.1.3,59.996294980563626,2026-05-20 10h16.30.307704 -0700,
,,,,,,,,,,,12,0.025,0.42500000000000004,,,,,108.48590529203648,,,,,,,108.47034112503752,109.46921449998626,0.575,0.42500000000000004,109.47268233302748,111.21924750000471,111.22063525003614,111.86988616699819,mostlygreen,green,0,1,0,1,9,"[0.45000000000000007, 0.42500000000000004, 0.45000000000000007, 0.42500000000000004]",0.43750000000000006,,,,,,,,,,,,,,,,,052026gb,001,2026-05-20_10h16.29.999,priming,,2026.1.3,59.996294980563626,2026-05-20 10h16.30.307704 -0700,
,,,,,,,,,,,13,0.025,0.45000000000000007,,,,,111.88578462501755,,,,,,,111.87021337501938,112.86928941699443,0.5499999999999999,0.45000000000000007,112.8727300420287,114.61924600001657,114.62092312501045,116.02036954200594,mostlyred,red,1,0,1,1,10,"[0.45000000000000007, 0.42500000000000004, 0.45000000000000007, 0.42500000000000004, 0.45000000000000007]",0.44000000000000006,,,,,,,,,,,,,,,,,052026gb,001,2026-05-20_10h16.29.999,priming,,2026.1.3,59.996294980563626,2026-05-20 10h16.30.307704 -0700,
,,,,,,,,,,,14,0.025,0.42500000000000004,,,,,116.03589158301475,,,,,,,116.02061641699402,117.01928716700058,0.575,0.42500000000000004,117.02282687503612,118.769264750008,118.77118416700978,120.03659920801874,mostlyred,red,1,1,1,0,10,"[0.45000000000000007, 0.42500000000000004, 0.45000000000000007, 0.42500000000000004, 0.45000000000000007]",0.44000000000000006,,,,,,,,,,,,,,,,,052026gb,001,2026-05-20_10h16.29.999,priming,,2026.1.3,59.996294980563626,2026-05-20 10h16.30.307704 -0700,
,,,,,,,,,,,15,0.025,0.4,,,,,120.05256929202005,,,,,,,120.03687650000211,121.0358839170076,0.6,0.4,121.03937283303821,122.785963500035,122.78777812502813,123.36995270801708,mostlyred,red,1,1,1,0,10,"[0.45000000000000007, 0.42500000000000004, 0.45000000000000007, 0.42500000000000004, 0.45000000000000007]",0.44000000000000006,,,,,,,,,,,,,,,,,052026gb,001,2026-05-20_10h16.29.999,priming,,2026.1.3,59.996294980563626,2026-05-20 10h16.30.307704 -0700,
,,,,,,,,,,,16,0.025,0.375,,,,,123.38589495798806,,,,,,,123.37019570800476,124.36929187498754,0.625,0.375,124.37270762503613,126.11921470798552,126.12118020799244,127.42007108300459,mostlygreen,green,0,1,0,1,11,"[0.45000000000000007, 0.42500000000000004, 0.45000000000000007, 0.42500000000000004, 0.45000000000000007, 0.375]",0.4291666666666667,,,,,,,,,,,,,,,,,052026gb,001,2026-05-20_10h16.29.999,priming,,2026.1.3,59.996294980563626,2026-05-20 10h16.30.307704 -0700,
,,,,,,,,,,,17,0.025,0.4,,,,,127.43586479203077,,,,,,,127.42031900002621,128.41926612501265,0.6,0.4,128.42280637501972,130.16929266700754,130.17097404203378,131.5533024169854,mostlyred,red,1,0,1,1,12,"[0.45000000000000007, 0.42500000000000004, 0.45000000000000007, 0.42500000000000004, 0.45000000000000007, 0.375, 0.4]",0.425,,,,,,,,,,,,,,,,,052026gb,001,2026-05-20_10h16.29.999,priming,,2026.1.3,59.996294980563626,2026-05-20 10h16.30.307704 -0700,
,,,,,,,,,,,18,0.025,0.375,,,,,131.56916166702285,,,,,,,131.5536037920392,132.55268587503815,0.625,0.375,132.55632283299929,134.30271570803598,134.30454966699472,135.3201541249873,mostlygreen,green,0,1,0,1,13,"[0.45000000000000007, 0.42500000000000004, 0.45000000000000007, 0.42500000000000004, 0.45000000000000007, 0.375, 0.4, 0.375]",0.41875,,,,,,,,,,,,,,,,,052026gb,001,2026-05-20_10h16.29.999,priming,,2026.1.3,59.996294980563626,2026-05-20 10h16.30.307704 -0700,
,,,,,,,,,,,19,0.025,0.4,,,,,135.33608999999706,,,,,,,135.32047083298676,136.31936654204037,0.6,0.4,136.3228351250291,138.06930949998787,138.07112791703548,138.62015541701112,mostlyred,red,1,0,1,1,14,"[0.45000000000000007, 0.42500000000000004, 0.45000000000000007, 0.42500000000000004, 0.45000000000000007, 0.375, 0.4, 0.375, 0.4]",0.4166666666666667,,,,,,,,,,,,,,,,,052026gb,001,2026-05-20_10h16.29.999,priming,,2026.1.3,59.996294980563626,2026-05-20 10h16.30.307704 -0700,
,,,,,,,,,,,20,0.025,0.375,,,,,138.63601866702083,,,,,,,138.62041020800825,139.61936900002183,0.625,0.375,139.62287045799894,141.36942158301827,141.37086825002916,141.8204924580059,mostlyred,red,1,1,1,0,14,"[0.45000000000000007, 0.42500000000000004, 0.45000000000000007, 0.42500000000000004, 0.45000000000000007, 0.375, 0.4, 0.375, 0.4]",0.4166666666666667,,,,,,,,,,,,,,,,,052026gb,001,2026-05-20_10h16.29.999,priming,,2026.1.3,59.996294980563626,2026-05-20 10h16.30.307704 -0700,
,,,,,,,,,,,21,0.025,0.35,,,,,141.836085500021,,,,,,,141.8207397920196,142.81947804201627,0.65,0.35,142.8230257499963,144.5694171669893,144.57112445798703,145.9200681670336,mostlygreen,green,0,1,0,1,15,"[0.45000000000000007, 0.42500000000000004, 0.45000000000000007, 0.42500000000000004, 0.45000000000000007, 0.375, 0.4, 0.375, 0.4, 0.35]",0.41,,,,,,,,,,,,,,,,,052026gb,001,2026-05-20_10h16.29.999,priming,,2026.1.3,59.996294980563626,2026-05-20 10h16.30.307704 -0700,
,,,,,,,,,,,22,0.025,0.375,,,,,145.93605537503026,,,,,,,145.92032270802883,146.91940308304038,0.625,0.375,146.92284608300542,148.6694372080383,148.67062141699716,149.72005141701084,mostlyred,red,1,0,1,1,16,"[0.45000000000000007, 0.42500000000000004, 0.45000000000000007, 0.42500000000000004, 0.45000000000000007, 0.375, 0.4, 0.375, 0.4, 0.35, 0.375]",0.4068181818181818,,,,,,,,,,,,,,,,,052026gb,001,2026-05-20_10h16.29.999,priming,,2026.1.3,59.996294980563626,2026-05-20 10h16.30.307704 -0700,
,,,,,,,,,,,23,0.025,0.35,,,,,149.7360302080051,,,,,,,149.7202996670385,150.71935062500415,0.65,0.35,150.72282295802142,152.46933116699802,152.47130949998973,153.07010366703616,mostlygreen,green,0,1,0,1,17,"[0.45000000000000007, 0.42500000000000004, 0.45000000000000007, 0.42500000000000004, 0.45000000000000007, 0.375, 0.4, 0.375, 0.4, 0.35, 0.375, 0.35]",0.4020833333333333,,,,,,,,,,,,,,,,,052026gb,001,2026-05-20_10h16.29.999,priming,,2026.1.3,59.996294980563626,2026-05-20 10h16.30.307704 -0700,
,,,,,,,,,,,24,0.025,0.375,,,,,153.08601954201004,,,,,,,153.07039337500464,154.06944595801178,0.625,0.375,154.0728576669935,155.81934600003297,155.82113108300837,157.50343645800604,mostlyred,red,1,0,1,1,18,"[0.45000000000000007, 0.42500000000000004, 0.45000000000000007, 0.42500000000000004, 0.45000000000000007, 0.375, 0.4, 0.375, 0.4, 0.35, 0.375, 0.35, 0.375]",0.39999999999999997,,,,,,,,,,,,,,,,,052026gb,001,2026-05-20_10h16.29.999,priming,,2026.1.3,59.996294980563626,2026-05-20 10h16.30.307704 -0700,
,,,,,,,,,,,25,0.025,0.35,,,,,157.51936383300927,,,,,,,157.5036862079869,158.5027374170022,0.65,0.35,158.5061369999894,160.25277912500314,160.2542632080149,161.32012366701383,mostlyred,red,1,1,1,0,18,"[0.45000000000000007, 0.42500000000000004, 0.45000000000000007, 0.42500000000000004, 0.45000000000000007, 0.375, 0.4, 0.375, 0.4, 0.35, 0.375, 0.35, 0.375]",0.39999999999999997,,,,,,,,,,,,,,,,,052026gb,001,2026-05-20_10h16.29.999,priming,,2026.1.3,59.996294980563626,2026-05-20 10h16.30.307704 -0700,
,,,,,,,,,,,26,0.025,0.32499999999999996,,,,,161.33599495800445,,,,,,,161.32037208299153,162.31941425002879,0.675,0.32499999999999996,162.3228165000328,164.069469708018,164.0714815829997,166.23685612500412,mostlygreen,green,0,1,0,1,19,"[0.45000000000000007, 0.42500000000000004, 0.45000000000000007, 0.42500000000000004, 0.45000000000000007, 0.375, 0.4, 0.375, 0.4, 0.35, 0.375, 0.35, 0.375, 0.32499999999999996]",0.39464285714285713,,,,,,,,,,,,,,,,,052026gb,001,2026-05-20_10h16.29.999,priming,,2026.1.3,59.996294980563626,2026-05-20 10h16.30.307704 -0700,
,,,,,,,,,,,27,0.025,0.35,,,,,166.25283133302582,,,,,,,166.23710379202385,167.2361941250274,0.65,0.35,167.23961250000866,168.98618387500755,168.9877344580018,170.0868066670373,mostlyred,red,1,0,1,1,20,"[0.45000000000000007, 0.42500000000000004, 0.45000000000000007, 0.42500000000000004, 0.45000000000000007, 0.375, 0.4, 0.375, 0.4, 0.35, 0.375, 0.35, 0.375, 0.32499999999999996, 0.35]",0.3916666666666666,,,,,,,,,,,,,,,,,052026gb,001,2026-05-20_10h16.29.999,priming,,2026.1.3,59.996294980563626,2026-05-20 10h16.30.307704 -0700,
,,,,,,,,,,,28,0.025,0.32499999999999996,,,,,170.10280933300965,,,,,,,170.0870678750216,171.08617995801615,0.675,0.32499999999999996,171.0896427500411,172.83626941702096,172.83737733302405,174.22026545798872,mostlygreen,green,0,1,0,1,21,"[0.42500000000000004, 0.45000000000000007, 0.42500000000000004, 0.45000000000000007, 0.375, 0.4, 0.375, 0.4, 0.35, 0.375, 0.35, 0.375, 0.32499999999999996, 0.35, 0.32499999999999996]",0.38333333333333336,,,,,,,,,,,,,,,,,052026gb,001,2026-05-20_10h16.29.999,priming,,2026.1.3,59.996294980563626,2026-05-20 10h16.30.307704 -0700,
,,,,,,,,,,,29,0.025,0.35,,,,,174.23614758299664,,,,,,,174.22054891701555,175.21949870802928,0.65,0.35,175.2229275830323,176.9694673329941,176.9715817500255,177.47026762500172,mostlygreen,green,0,0,0,0,21,"[0.42500000000000004, 0.45000000000000007, 0.42500000000000004, 0.45000000000000007, 0.375, 0.4, 0.375, 0.4, 0.35, 0.375, 0.35, 0.375, 0.32499999999999996, 0.35, 0.32499999999999996]",0.38333333333333336,,,,,,,,,,,,,,,,,052026gb,001,2026-05-20_10h16.29.999,priming,,2026.1.3,59.996294980563626,2026-05-20 10h16.30.307704 -0700,
,,,,,,,,,,,30,0.025,0.375,,,,,177.48616483301157,,,,,,,177.47056345798774,178.46950579201803,0.625,0.375,178.47289625002304,180.21949887502706,180.22124541702215,181.57021204201737,mostlygreen,green,0,0,0,0,21,"[0.42500000000000004, 0.45000000000000007, 0.42500000000000004, 0.45000000000000007, 0.375, 0.4, 0.375, 0.4, 0.35, 0.375, 0.35, 0.375, 0.32499999999999996, 0.35, 0.32499999999999996]",0.38333333333333336,,,,,,,,,,,,,,,,,052026gb,001,2026-05-20_10h16.29.999,priming,,2026.1.3,59.996294980563626,2026-05-20 10h16.30.307704 -0700,
,,,,,,,,,,,31,0.025,0.4,,,,,181.58604975003982,,,,,,,181.5704580420279,182.56955670804018,0.6,0.4,182.57296737498837,184.31954741699155,184.32117958302842,185.62017033301527,mostlygreen,green,0,0,0,0,21,"[0.42500000000000004, 0.45000000000000007, 0.42500000000000004, 0.45000000000000007, 0.375, 0.4, 0.375, 0.4, 0.35, 0.375, 0.35, 0.375, 0.32499999999999996, 0.35, 0.32499999999999996]",0.38333333333333336,,,,,,,,,,,,,,,,,052026gb,001,2026-05-20_10h16.29.999,priming,,2026.1.3,59.996294980563626,2026-05-20 10h16.30.307704 -0700,
,,,,,,,,,,,32,0.025,0.42500000000000004,,,,,185.6361088330159,,,,,,,185.620418000035,186.61955262499396,0.575,0.42500000000000004,186.62300754198804,188.36948325001867,188.37147741700755,188.85355004202574,mostlygreen,green,0,0,0,0,21,"[0.42500000000000004, 0.45000000000000007, 0.42500000000000004, 0.45000000000000007, 0.375, 0.4, 0.375, 0.4, 0.35, 0.375, 0.35, 0.375, 0.32499999999999996, 0.35, 0.32499999999999996]",0.38333333333333336,,,,,,,,,,,,,,,,,052026gb,001,2026-05-20_10h16.29.999,priming,,2026.1.3,59.996294980563626,2026-05-20 10h16.30.307704 -0700,
,,,,,,,,,,,33,0.025,0.45000000000000007,,,,,188.86946850002278,,,,,,,188.85386254201876,189.8528670000378,0.5499999999999999,0.45000000000000007,189.8563420420396,191.6027915420127,191.60425258299801,192.9534757080255,mostlygreen,green,0,0,0,0,21,"[0.42500000000000004, 0.45000000000000007, 0.42500000000000004, 0.45000000000000007, 0.375, 0.4, 0.375, 0.4, 0.35, 0.375, 0.35, 0.375, 0.32499999999999996, 0.35, 0.32499999999999996]",0.38333333333333336,,,,,,,,,,,,,,,,,052026gb,001,2026-05-20_10h16.29.999,priming,,2026.1.3,59.996294980563626,2026-05-20 10h16.30.307704 -0700,
,,,,,,,,,,,34,0.025,0.4750000000000001,,,,,192.96940204198472,,,,,,,192.95372325001517,193.95279804203892,0.5249999999999999,0.4750000000000001,193.95621991698863,195.70287600002484,195.704538082995,197.05375654203817,mostlyred,red,1,0,1,1,22,"[0.45000000000000007, 0.42500000000000004, 0.45000000000000007, 0.375, 0.4, 0.375, 0.4, 0.35, 0.375, 0.35, 0.375, 0.32499999999999996, 0.35, 0.32499999999999996, 0.4750000000000001]",0.3866666666666667,,,,,,,,,,,,,,,,,052026gb,001,2026-05-20_10h16.29.999,priming,,2026.1.3,59.996294980563626,2026-05-20 10h16.30.307704 -0700,
,,,,,,,,,,,35,0.025,0.45000000000000007,,,,,197.06956887501292,,,,,,,197.05404920800356,198.05302629200742,0.5499999999999999,0.45000000000000007,198.05643241701182,199.8030323330313,199.80443633301184,201.53697300003842,mostlyred,red,1,1,1,0,22,"[0.45000000000000007, 0.42500000000000004, 0.45000000000000007, 0.375, 0.4, 0.375, 0.4, 0.35, 0.375, 0.35, 0.375, 0.32499999999999996, 0.35, 0.32499999999999996, 0.4750000000000001]",0.3866666666666667,,,,,,,,,,,,,,,,,052026gb,001,2026-05-20_10h16.29.999,priming,,2026.1.3,59.996294980563626,2026-05-20 10h16.30.307704 -0700,
,,,,,,,,,,,36,0.025,0.42500000000000004,,,,,201.55296933301724,,,,,,,201.53724654199323,202.5363055000198,0.575,0.42500000000000004,202.53976499999408,204.28623258299194,204.28820433298824,206.10370249999687,mostlygreen,green,0,1,0,1,23,"[0.42500000000000004, 0.45000000000000007, 0.375, 0.4, 0.375, 0.4, 0.35, 0.375, 0.35, 0.375, 0.32499999999999996, 0.35, 0.32499999999999996, 0.4750000000000001, 0.42500000000000004]",0.38499999999999995,,,,,,,,,,,,,,,,,052026gb,001,2026-05-20_10h16.29.999,priming,,2026.1.3,59.996294980563626,2026-05-20 10h16.30.307704 -0700,
,,,,,,,,,,,37,0.025,0.45000000000000007,,,,,206.11959745798958,,,,,,,206.10395654203603,207.10301954200258,0.5499999999999999,0.45000000000000007,207.10643258300843,208.85302312503336,208.85476625000592,210.23703800002113,mostlyred,red,1,0,1,1,24,"[0.45000000000000007, 0.375, 0.4, 0.375, 0.4, 0.35, 0.375, 0.35, 0.375, 0.32499999999999996, 0.35, 0.32499999999999996, 0.4750000000000001, 0.42500000000000004, 0.45000000000000007]",0.3866666666666667,,,,,,,,,,,,,,,,,052026gb,001,2026-05-20_10h16.29.999,priming,,2026.1.3,59.996294980563626,2026-05-20 10h16.30.307704 -0700,
,,,,,,,,,,,38,0.025,0.42500000000000004,,,,,210.25285820802674,,,,,,,210.23728900001151,211.23634104203666,0.575,0.42500000000000004,211.23982100002468,212.9863517920021,212.98802429198986,214.2537509170361,mostlygreen,green,0,1,0,1,25,"[0.375, 0.4, 0.375, 0.4, 0.35, 0.375, 0.35, 0.375, 0.32499999999999996, 0.35, 0.32499999999999996, 0.4750000000000001, 0.42500000000000004, 0.45000000000000007, 0.42500000000000004]",0.38499999999999995,,,,,,,,,,,,,,,,,052026gb,001,2026-05-20_10h16.29.999,priming,,2026.1.3,59.996294980563626,2026-05-20 10h16.30.307704 -0700,
,,,,,,,,,,,39,0.025,0.45000000000000007,,,,,214.26950891700108,,,,,,,214.25400991702918,215.25297454203246,0.5499999999999999,0.45000000000000007,215.25654529203894,217.00313083303627,217.00491108302958,218.80425229202956,mostlyred,red,1,0,1,1,26,"[0.4, 0.375, 0.4, 0.35, 0.375, 0.35, 0.375, 0.32499999999999996, 0.35, 0.32499999999999996, 0.4750000000000001, 0.42500000000000004, 0.45000000000000007, 0.42500000000000004, 0.45000000000000007]",0.38999999999999996,,,,,,,,,,,,,,,,,052026gb,001,2026-05-20_10h16.29.999,priming,,2026.1.3,59.996294980563626,2026-05-20 10h16.30.307704 -0700,
,,,,,,,,,,,,,,,,,,,,,,space,54.44427270803135,None,,,,,,,,,,,,,,,,,,,,,,,,,,,,,,,,,,052026gb,001,2026-05-20_10h16.29.999,priming,,2026.1.3,59.996294980563626,2026-05-20 10h16.30.307704 -0700,
GR_Incongruent_GreenCue_RedProbe_Top,GreenGaborBoth.png,RedGaborBoth.png,GreenGaborBoth.png,RedGaborDisappearTop.png,Green.mp3,green,top,0,0,0,,,,0,0,0,62,273.3366347500123,,,,,,,,,,,,,,,,bottom,,,,,,,,273.31748204200994,277.18735454202397,277.18752770801075,282.4366881250171,282.44457450002665,283.68671141698724,283.68841616698774,287.6039647079888,287.6044800829841,292.6709468330373,mostlyred,FinalRedContrast,FinalGreenContrast,292.67164891702123,297.53756079199957,2,052026gb,001,2026-05-20_10h16.29.999,priming,,2026.1.3,59.996294980563626,2026-05-20 10h16.30.307704 -0700,
GR_Incongruent_RedCue_GreenProbe_Bottom,GreenGaborBoth.png,RedGaborBoth.png,GreenGaborDisappearBottom.png,RedGaborBoth.png,Red.mp3,red,bottom,1,1,0,,,,0,1,1,53,297.5532436670037,,,,,,,,,,,,,,,,bottom,,,,,,,,297.5393425830407,381.35403929202585,381.35420283302665,386.6036489169928,386.6127902499866,387.8536929170368,387.85573679202935,398.90419174998533,398.9058110000333,400.68782804202056,evensplit,FinalRedContrast,FinalGreenContrast,400.6885601670365,402.837895167002,2,052026gb,001,2026-05-20_10h16.29.999,priming,,2026.1.3,59.996294980563626,2026-05-20 10h16.30.307704 -0700,
GR_Congruent_GreenCue_GreenProbe_Bottom,GreenGaborBoth.png,RedGaborBoth.png,GreenGaborDisappearBottom.png,RedGaborBoth.png,Green.mp3,green,bottom,2,2,0,,,,0,2,2,35,402.8536474170396,,,,,,,,,,,,,,,,bottom,,,,,,,,402.83970916701946,409.004134332994,409.0043022080208,414.2537253749906,414.2601092500263,415.50376437499654,415.50514729198767,442.4711367500131,442.47270466701593,446.4880988750374,evensplit,FinalRedContrast,FinalGreenContrast,446.4892306670081,449.28802974999417,3,052026gb,001,2026-05-20_10h16.29.999,priming,,2026.1.3,59.996294980563626,2026-05-20 10h16.30.307704 -0700,
GR_Incongruent_GreenCue_RedProbe_Top,GreenGaborBoth.png,RedGaborBoth.png,GreenGaborBoth.png,RedGaborDisappearTop.png,Green.mp3,green,top,3,3,0,,,,0,3,3,54,449.3038940420374,,,,,,,,,,,,,,,,top,,,,,,,,449.28812904201914,450.37087516702013,450.3710405420279,455.62071583303623,455.6282624999876,456.87066170800244,456.8726630000165,457.5044699170394,457.50597679201746,458.6548809580272,evensplit,FinalRedContrast,FinalGreenContrast,458.656017041998,461.48824945802335,3,052026gb,001,2026-05-20_10h16.29.999,priming,,2026.1.3,59.996294980563626,2026-05-20 10h16.30.307704 -0700,
GR_Congruent_RedCue_RedProbe_Bottom,GreenGaborBoth.png,RedGaborBoth.png,GreenGaborBoth.png,RedGaborDisappearBottom.png,Red.mp3,red,bottom,4,4,0,,,,0,4,4,1,461.50400162499864,,,,,,,,,,,,,,,,bottom,,,,,,,,461.4899392920197,462.60429720801767,462.6044669999974,467.8540220829891,467.86212387500564,469.10402795800474,469.1056873750058,469.80450483300956,469.8052744170418,470.9717401250382,evensplit,FinalRedContrast,FinalGreenContrast,470.9722291250364,472.35488025000086,3,052026gb,001,2026-05-20_10h16.29.999,priming,,2026.1.3,59.996294980563626,2026-05-20 10h16.30.307704 -0700,
GR_Congruent_GreenCue_GreenProbe_Bottom,GreenGaborBoth.png,RedGaborBoth.png,GreenGaborDisappearBottom.png,RedGaborBoth.png,Green.mp3,green,bottom,5,5,0,,,,0,5,5,19,472.3706160830334,,,,,,,,,,,,,,,,bottom,,,,,,,,472.3567756669945,486.32093804201577,486.32110104203457,491.57080591702834,491.57729462499265,492.8208616669872,492.82244012498995,494.07127829198726,494.0728117080289,495.30497808300424,mostlygreen,FinalRedContrast,FinalGreenContrast,495.3062365420046,496.75503091700375,3,052026gb,001,2026-05-20_10h16.29.999,priming,,2026.1.3,59.996294980563626,2026-05-20 10h16.30.307704 -0700,
GR_Incongruent_RedCue_GreenProbe_Bottom,GreenGaborBoth.png,RedGaborBoth.png,GreenGaborDisappearBottom.png,RedGaborBoth.png,Red.mp3,red,bottom,6,6,0,,,,0,6,6,45,496.7707905420102,,,,,,,,,,,,,,,,bottom,,,,,,,,496.7566255420097,498.371154958033,498.37132816703524,503.6207967920345,503.6291715000407,504.87081816699356,504.87276262498926,507.37120637501357,507.37304841703735,509.23828325001523,mostlygreen,FinalRedContrast,FinalGreenContrast,509.2395647080266,510.4884217500221,3,052026gb,001,2026-05-20_10h16.29.999,priming,,2026.1.3,59.996294980563626,2026-05-20 10h16.30.307704 -0700,
GR_Congruent_RedCue_RedProbe_Top,GreenGaborBoth.png,RedGaborBoth.png,GreenGaborBoth.png,RedGaborDisappearTop.png,Red.mp3,red,top,7,7,0,,,,0,7,7,32,510.5040985420346,,,,,,,,,,,,,,,,top,,,,,,,,510.48852012498537,513.5045517500257,513.5047137500369,518.7541982920375,518.7618270000094,520.0040725420113,520.0059739170247,521.6712943750317,521.6730337500339,522.604931082984,mostlygreen,FinalRedContrast,FinalGreenContrast,522.6054667499848,523.9721866250038,3,052026gb,001,2026-05-20_10h16.29.999,priming,,2026.1.3,59.996294980563626,2026-05-20 10h16.30.307704 -0700,
GR_Congruent_GreenCue_GreenProbe_Top,GreenGaborBoth.png,RedGaborBoth.png,GreenGaborDisappearTop.png,RedGaborBoth.png,Green.mp3,green,top,8,8,0,,,,0,8,8,42,523.9875333330128,,,,,,,,,,,,,,,,top,,,,,,,,523.974064457987,525.5712998750387,525.571463291999,530.8209730830276,530.8291060000192,532.0710089170025,532.0722444999847,532.6880493750214,532.6890903750318,534.321737708,mostlygreen,FinalRedContrast,FinalGreenContrast,534.3229837919935,535.0884290420217,3,052026gb,001,2026-05-20_10h16.29.999,priming,,2026.1.3,59.996294980563626,2026-05-20 10h16.30.307704 -0700,
GR_Congruent_RedCue_RedProbe_Bottom,GreenGaborBoth.png,RedGaborBoth.png,GreenGaborBoth.png,RedGaborDisappearBottom.png,Red.mp3,red,bottom,9,9,0,,,,0,9,9,33,535.1042002080358,,,,,,,,,,,,,,,,bottom,,,,,,,,535.0902119579841,535.8712449170416,535.871411833039,541.1210780830006,541.1294595419895,542.370989624993,542.3726842500037,544.5213791670394,544.5227968750405,545.90514037502,allgreen,FinalRedContrast,FinalGreenContrast,545.9063052079873,547.2551092079957,3,052026gb,001,2026-05-20_10h16.29.999,priming,,2026.1.3,59.996294980563626,2026-05-20 10h16.30.307704 -0700,
GR_Congruent_GreenCue_GreenProbe_Top,GreenGaborBoth.png,RedGaborBoth.png,GreenGaborDisappearTop.png,RedGaborBoth.png,Green.mp3,green,top,10,10,0,,,,0,10,10,58,547.2710027919966,,,,,,,,,,,,,,,,top,,,,,,,,547.2570215419983,548.3547300830251,548.3548949169926,553.6042883330374,553.6118838330149,554.8542370420182,554.8560677500209,556.2214479999966,556.2222513330053,557.3219823330292,evensplit,FinalRedContrast,FinalGreenContrast,557.3225669169915,559.0719301670324,3,052026gb,001,2026-05-20_10h16.29.999,priming,,2026.1.3,59.996294980563626,2026-05-20 10h16.30.307704 -0700,
GR_Incongruent_RedCue_GreenProbe_Top,GreenGaborBoth.png,RedGaborBoth.png,GreenGaborDisappearTop.png,RedGaborBoth.png,Red.mp3,red,top,11,11,0,,,,0,11,11,36,559.0877275830135,,,,,,,,,,,,,,,,top,,,,,,,,559.0737255419954,561.7380539170117,561.738216333033,566.9878546250402,566.9943235000246,568.2377880000276,568.2390506250085,569.1552116670064,569.1560182500398,569.9722909170086,allgreen,FinalRedContrast,FinalGreenContrast,569.9725914580049,571.0719257500023,3,052026gb,001,2026-05-20_10h16.29.999,priming,,2026.1.3,59.996294980563626,2026-05-20 10h16.30.307704 -0700,
GR_Incongruent_GreenCue_RedProbe_Top,GreenGaborBoth.png,RedGaborBoth.png,GreenGaborBoth.png,RedGaborDisappearTop.png,Green.mp3,green,top,12,12,0,,,,0,12,12,22,571.0875819580397,,,,,,,,,,,,,,,,top,,,,,,,,571.0738477080013,571.6713402500027,571.6715020830161,576.9211136249942,576.9287713750382,578.1711466250126,578.1728322079871,579.1881834579981,579.18968554202,579.9556448330404,allgreen,FinalRedContrast,FinalGreenContrast,579.9561022500275,581.1220324169844,3,052026gb,001,2026-05-20_10h16.29.999,priming,,2026.1.3,59.996294980563626,2026-05-20 10h16.30.307704 -0700,
GR_Incongruent_GreenCue_RedProbe_Bottom,GreenGaborBoth.png,RedGaborBoth.png,GreenGaborBoth.png,RedGaborDisappearBottom.png,Green.mp3,green,bottom,13,13,0,,,,0,13,13,55,581.1376745000016,,,,,,,,,,,,,,,,bottom,,,,,,,,581.1221771670389,583.7551977080293,583.7553908330156,589.0044278749847,589.0120108750416,590.2543577500037,590.2560363330413,592.3215685419855,592.3236150420271,593.4886681670323,mostlygreen,FinalRedContrast,FinalGreenContrast,593.4895910000196,596.1887570419931,2,052026gb,001,2026-05-20_10h16.29.999,priming,,2026.1.3,59.996294980563626,2026-05-20 10h16.30.307704 -0700,
GR_Congruent_GreenCue_GreenProbe_Top,GreenGaborBoth.png,RedGaborBoth.png,GreenGaborDisappearTop.png,RedGaborBoth.png,Green.mp3,green,top,14,14,0,,,,0,14,14,50,596.2045229169889,,,,,,,,,,,,,,,,top,,,,,,,,596.1888634170173,596.7214722080389,596.7216321250307,601.9712162080104,601.9776736249914,603.2212025420158,603.2226683330373,604.6383582500275,604.6398660829873,606.088680166984,mostlygreen,FinalRedContrast,FinalGreenContrast,606.0898264170391,607.4054284580052,3,052026gb,001,2026-05-20_10h16.29.999,priming,,2026.1.3,59.996294980563626,2026-05-20 10h16.30.307704 -0700,
GR_Congruent_RedCue_RedProbe_Bottom,GreenGaborBoth.png,RedGaborBoth.png,GreenGaborBoth.png,RedGaborDisappearBottom.png,Red.mp3,red,bottom,15,15,0,,,,0,15,15,49,607.4211751249968,,,,,,,,,,,,,,,,bottom,,,,,,,,607.4070657080156,607.8882005829946,607.8883617080282,613.1378812920302,613.1444280419964,614.3879334169906,614.389275500027,616.0550020830124,616.0561651249882,619.5221782500157,mostlyred,FinalRedContrast,FinalGreenContrast,619.5228500000085,621.8387416250189,2,052026gb,001,2026-05-20_10h16.29.999,priming,,2026.1.3,59.996294980563626,2026-05-20 10h16.30.307704 -0700,
GR_Congruent_GreenCue_GreenProbe_Top,GreenGaborBoth.png,RedGaborBoth.png,GreenGaborDisappearTop.png,RedGaborBoth.png,Green.mp3,green,top,16,16,0,,,,0,16,16,34,621.8545363750309,,,,,,,,,,,,,,,,top,,,,,,,,621.840532000002,627.4383320829947,627.4384969579987,632.6880578750279,632.6963610420353,633.9380300419871,633.9395838750061,634.4718326670118,634.4730855420348,635.4556067920057,allgreen,FinalRedContrast,FinalGreenContrast,635.4565842919983,636.3221419579932,2,052026gb,001,2026-05-20_10h16.29.999,priming,,2026.1.3,59.996294980563626,2026-05-20 10h16.30.307704 -0700,
GG_non_riv_catch_GreenCue_GreenProbe_Top,GreenGaborBoth.png,Blank.png,GreenGaborDisappearTop.png,Blank.png,Green.mp3,green,top,17,17,0,,,,0,17,17,78,636.3379831250058,,,,,,,,,,,,,,,,top,,,,,,,,636.32224137499,636.8882800000138,636.8884397500078,642.1380081670359,642.1455259580398,643.3880516249919,643.3895249580382,644.6883999999845,644.6900762920268,645.5888860420091,allgreen,FinalRedContrast,FinalGreenContrast,645.5892159169889,646.4388146669953,2,052026gb,001,2026-05-20_10h16.29.999,priming,,2026.1.3,59.996294980563626,2026-05-20 10h16.30.307704 -0700,
GR_Incongruent_GreenCue_RedProbe_Bottom,GreenGaborBoth.png,RedGaborBoth.png,GreenGaborBoth.png,RedGaborDisappearBottom.png,Green.mp3,green,bottom,18,18,0,,,,0,18,18,15,646.4546429580078,,,,,,,,,,,,,,,,bottom,,,,,,,,646.438912749989,647.288274792023,647.2884364580386,652.5380136669846,652.5450082499883,653.7880900420132,653.7896986670094,655.6384914999944,655.6393669579993,658.4887692920165,mostlygreen,FinalRedContrast,FinalGreenContrast,658.4902983329957,659.5558888330124,2,052026gb,001,2026-05-20_10h16.29.999,priming,,2026.1.3,59.996294980563626,2026-05-20 10h16.30.307704 -0700,
GR_Congruent_GreenCue_GreenProbe_Top,GreenGaborBoth.png,RedGaborBoth.png,GreenGaborDisappearTop.png,RedGaborBoth.png,Green.mp3,green,top,19,19,0,,,,0,19,19,26,659.5712710419903,,,,,,,,,,,,,,,,top,,,,,,,,659.5559875830077,660.1051164580276,660.1052819580073,665.3548500830075,665.3613200419932,666.6048654170008,666.6064955419861,667.6385507920058,667.640057792014,668.4390176250017,mostlygreen,FinalRedContrast,FinalGreenContrast,668.4396702920203,671.7723441250273,2,052026gb,001,2026-05-20_10h16.29.999,priming,,2026.1.3,59.996294980563626,2026-05-20 10h16.30.307704 -0700,
GR_Incongruent_GreenCue_RedProbe_Top,GreenGaborBoth.png,RedGaborBoth.png,GreenGaborBoth.png,RedGaborDisappearTop.png,Green.mp3,green,top,20,20,0,,,,0,20,20,14,671.7881085420377,,,,,,,,,,,,,,,,bottom,,,,,,,,671.772443666996,673.0717147079995,673.0718784169876,678.3213992500096,678.3289750000113,679.5714943750063,679.5731174999964,682.6052860830096,682.6067615830107,684.7222218330135,mostlygreen,FinalRedContrast,FinalGreenContrast,684.723575083015,686.655602541985,2,052026gb,001,2026-05-20_10h16.29.999,priming,,2026.1.3,59.996294980563626,2026-05-20 10h16.30.307704 -0700,
GR_Incongruent_RedCue_GreenProbe_Top,GreenGaborBoth.png,RedGaborBoth.png,GreenGaborDisappearTop.png,RedGaborBoth.png,Red.mp3,red,top,21,21,0,,,,0,21,21,28,686.6714018750354,,,,,,,,,,,,,,,,top,,,,,,,,686.6572578750202,687.6717107500299,687.6718785419944,692.9215615420253,692.9280416250112,694.1714632920339,694.1732298330171,696.2719606669853,696.273604166985,697.7724422920146,evensplit,FinalRedContrast,FinalGreenContrast,697.773702208011,699.372402457986,2,052026gb,001,2026-05-20_10h16.29.999,priming,,2026.1.3,59.996294980563626,2026-05-20 10h16.30.307704 -0700,
GR_Incongruent_RedCue_GreenProbe_Top,GreenGaborBoth.png,RedGaborBoth.png,GreenGaborDisappearTop.png,RedGaborBoth.png,Red.mp3,red,top,22,22,0,,,,0,22,22,4,699.3881904170266,,,,,,,,,,,,,,,,top,,,,,,,,699.3725004580338,699.7386012499919,699.738766250026,704.9881668330054,704.9946401250199,706.23833487503,706.239611542027,707.5386927500367,707.5398067919887,708.556028083025,mostlygreen,FinalRedContrast,FinalGreenContrast,708.5563269170234,710.3560276250355,2,052026gb,001,2026-05-20_10h16.29.999,priming,,2026.1.3,59.996294980563626,2026-05-20 10h16.30.307704 -0700,
GR_Incongruent_RedCue_GreenProbe_Bottom,GreenGaborBoth.png,RedGaborBoth.png,GreenGaborDisappearBottom.png,RedGaborBoth.png,Red.mp3,red,bottom,23,23,0,,,,0,23,23,13,710.3714570000302,,,,,,,,,,,,,,,,bottom,,,,,,,,710.356125625025,734.1221980419941,734.1223802079912,739.3717726250179,739.3803568329895,740.6217412920087,740.6232704170397,742.0221091249841,742.0238453330239,743.2725487920106,mostlygreen,FinalRedContrast,FinalGreenContrast,743.2737661250285,743.622584375029,3,052026gb,001,2026-05-20_10h16.29.999,priming,,2026.1.3,59.996294980563626,2026-05-20 10h16.30.307704 -0700,
GR_Congruent_GreenCue_GreenProbe_Top,GreenGaborBoth.png,RedGaborBoth.png,GreenGaborDisappearTop.png,RedGaborBoth.png,Green.mp3,green,top,24,24,0,,,,0,24,24,66,743.6382043749909,,,,,,,,,,,,,,,,top,,,,,,,,743.6245034169988,744.3553839580272,744.3555463330122,749.6050948750344,749.612634457997,750.8551531250123,750.8572210420389,752.7054428330157,752.7070701250341,753.5392225420219,mostlygreen,FinalRedContrast,FinalGreenContrast,753.5404559579911,754.9559900420136,2,052026gb,001,2026-05-20_10h16.29.999,priming,,2026.1.3,59.996294980563626,2026-05-20 10h16.30.307704 -0700,
GR_Congruent_RedCue_RedProbe_Bottom,GreenGaborBoth.png,RedGaborBoth.png,GreenGaborBoth.png,RedGaborDisappearBottom.png,Red.mp3,red,bottom,25,25,0,,,,0,25,25,9,754.9716251250356,,,,,,,,,,,,,,,,bottom,,,,,,,,754.9575589580345,758.0220585000352,758.0222240000148,763.2717757920036,763.2786867920076,764.5217228750116,764.5237494999892,766.1393528330373,766.1400112080155,768.0560112500098,mostlygreen,FinalRedContrast,FinalGreenContrast,768.0571366670192,770.1398126670392,1,052026gb,001,2026-05-20_10h16.29.999,priming,,2026.1.3,59.996294980563626,2026-05-20 10h16.30.307704 -0700,
GR_Incongruent_GreenCue_RedProbe_Bottom,GreenGaborBoth.png,RedGaborBoth.png,GreenGaborBoth.png,RedGaborDisappearBottom.png,Green.mp3,green,bottom,26,26,0,,,,0,26,26,39,770.1551589170122,,,,,,,,,,,,,,,,bottom,,,,,,,,770.141594582994,770.7392732920125,770.7394512080355,775.9884837500285,775.994799542008,777.2385202920414,777.2402992080315,779.005614624999,779.0070902919979,781.4893624170218,mostlygreen,FinalRedContrast,FinalGreenContrast,781.4903417919995,782.5727558750077,1,052026gb,001,2026-05-20_10h16.29.999,priming,,2026.1.3,59.996294980563626,2026-05-20 10h16.30.307704 -0700,
GG_non_riv_catch_RedCue_GreenProbe_Bottom,GreenGaborBoth.png,Blank.png,GreenGaborDisappearBottom.png,Blank.png,Red.mp3,red,bottom,27,27,0,,,,0,27,27,77,782.588503875013,,,,,,,,,,,,,,,,bottom,,,,,,,,782.5743533330387,783.1721774580074,783.1723391250125,788.4218296250328,788.4279980830033,789.6717975420179,789.673658707994,790.4555663749925,790.4573768330156,791.8059644169989,mostlygreen,FinalRedContrast,FinalGreenContrast,791.8072490420309,795.2560712500126,2,052026gb,001,2026-05-20_10h16.29.999,priming,,2026.1.3,59.996294980563626,2026-05-20 10h16.30.307704 -0700,
GR_Congruent_GreenCue_GreenProbe_Top,GreenGaborBoth.png,RedGaborBoth.png,GreenGaborDisappearTop.png,RedGaborBoth.png,Green.mp3,green,top,28,28,0,,,,0,28,28,2,795.2717737500207,,,,,,,,,,,,,,,,bottom,,,,,,,,795.2579526670161,795.9393137079896,795.9394984579994,801.1886981250136,801.1968027080293,802.4386468750308,802.4405244580121,804.2057084580301,804.2065726250294,805.1061899170163,mostlygreen,FinalRedContrast,FinalGreenContrast,805.1068445830024,806.4728434170247,1,052026gb,001,2026-05-20_10h16.29.999,priming,,2026.1.3,59.996294980563626,2026-05-20 10h16.30.307704 -0700,
GR_Incongruent_GreenCue_RedProbe_Top,GreenGaborBoth.png,RedGaborBoth.png,GreenGaborBoth.png,RedGaborDisappearTop.png,Green.mp3,green,top,29,29,0,,,,0,29,29,46,806.4885344170034,,,,,,,,,,,,,,,,top,,,,,,,,806.4729907920118,807.0056329999934,807.0057960830163,812.2553114169859,812.2628705000388,813.505614291993,813.5074582080124,814.7389545420301,814.7407281250344,817.0561285830336,mostlyred,FinalRedContrast,FinalGreenContrast,817.0573152499855,818.2228102080408,1,052026gb,001,2026-05-20_10h16.29.999,priming,,2026.1.3,59.996294980563626,2026-05-20 10h16.30.307704 -0700,
GR_Incongruent_RedCue_GreenProbe_Top,GreenGaborBoth.png,RedGaborBoth.png,GreenGaborDisappearTop.png,RedGaborBoth.png,Red.mp3,red,top,30,30,0,,,,0,30,30,44,818.2385264170007,,,,,,,,,,,,,,,,top,,,,,,,,818.2244797080057,818.6223364170291,818.6224982080166,823.8719575420255,823.8795885000145,825.1219393750071,825.1240019170218,825.9394152500317,825.9398677080171,827.3560507080401,mostlygreen,FinalRedContrast,FinalGreenContrast,827.3571897500078,828.0561290830374,1,052026gb,001,2026-05-20_10h16.29.999,priming,,2026.1.3,59.996294980563626,2026-05-20 10h16.30.307704 -0700,
GR_Incongruent_GreenCue_RedProbe_Bottom,GreenGaborBoth.png,RedGaborBoth.png,GreenGaborBoth.png,RedGaborDisappearBottom.png,Green.mp3,green,bottom,31,31,0,,,,0,31,31,47,828.071844207996,,,,,,,,,,,,,,,,bottom,,,,,,,,828.0579944170313,828.5056994580082,828.5058650830179,833.7553462079959,833.7623118330375,835.0053469170234,835.0068572500022,835.8058129579877,835.8070191250299,837.6562852080096,mostlyred,FinalRedContrast,FinalGreenContrast,837.6575084170327,838.3563101670006,1,052026gb,001,2026-05-20_10h16.29.999,priming,,2026.1.3,59.996294980563626,2026-05-20 10h16.30.307704 -0700,
GR_Incongruent_GreenCue_RedProbe_Bottom,GreenGaborBoth.png,RedGaborBoth.png,GreenGaborBoth.png,RedGaborDisappearBottom.png,Green.mp3,green,bottom,32,32,0,,,,0,32,32,31,838.372026875033,,,,,,,,,,,,,,,,bottom,,,,,,,,838.3564139580121,838.822420875018,838.8225822499953,844.0720704169944,844.0786185830366,845.3221575830248,845.3235264170216,846.5725316249882,846.5739442080376,847.2729611250106,mostlyred,FinalRedContrast,FinalGreenContrast,847.2742085420177,848.156315417029,1,052026gb,001,2026-05-20_10h16.29.999,priming,,2026.1.3,59.996294980563626,2026-05-20 10h16.30.307704 -0700,
GR_Congruent_RedCue_RedProbe_Top,GreenGaborBoth.png,RedGaborBoth.png,GreenGaborBoth.png,RedGaborDisappearTop.png,Red.mp3,red,top,33,33,0,,,,0,33,33,64,848.1721256250166,,,,,,,,,,,,,,,,top,,,,,,,,848.1580274170265,848.9724356250372,848.9725967079867,854.2220544170123,854.2295637920033,855.4721854170202,855.473412583,856.6559732920141,856.6574412080226,859.5398385000299,mostlyred,FinalRedContrast,FinalGreenContrast,859.5402412079857,860.2062857500277,1,052026gb,001,2026-05-20_10h16.29.999,priming,,2026.1.3,59.996294980563626,2026-05-20 10h16.30.307704 -0700,
GR_Incongruent_RedCue_GreenProbe_Top,GreenGaborBoth.png,RedGaborBoth.png,GreenGaborDisappearTop.png,RedGaborBoth.png,Red.mp3,red,top,34,34,0,,,,0,34,34,60,860.2220024170238,,,,,,,,,,,,,,,,top,,,,,,,,860.2063859580085,860.7058050000342,860.7059706670116,865.9555102500017,865.9631072080228,867.2054697499843,867.2070373750175,868.6726944579859,868.6743417500402,869.5062798330327,mostlygreen,FinalRedContrast,FinalGreenContrast,869.5075025830301,870.3067644170369,1,052026gb,001,2026-05-20_10h16.29.999,priming,,2026.1.3,59.996294980563626,2026-05-20 10h16.30.307704 -0700,
GR_Incongruent_RedCue_GreenProbe_Top,GreenGaborBoth.png,RedGaborBoth.png,GreenGaborDisappearTop.png,RedGaborBoth.png,Red.mp3,red,top,35,35,0,,,,0,35,35,52,870.3221247500041,,,,,,,,,,,,,,,,top,,,,,,,,870.3068713329849,870.7724024170311,870.7725651250221,876.0222827920225,876.0287685000221,877.2722435829928,877.273943874985,878.4060272080242,878.4073964580311,880.1234182920307,mostlygreen,FinalRedContrast,FinalGreenContrast,880.1236962919938,880.839745208039,1,052026gb,001,2026-05-20_10h16.29.999,priming,,2026.1.3,59.996294980563626,2026-05-20 10h16.30.307704 -0700,
GR_Incongruent_RedCue_GreenProbe_Bottom,GreenGaborBoth.png,RedGaborBoth.png,GreenGaborDisappearBottom.png,RedGaborBoth.png,Red.mp3,red,bottom,36,36,0,,,,0,36,36,21,880.8555199580151,,,,,,,,,,,,,,,,bottom,,,,,,,,880.8398432499962,881.2725549580064,881.2727250829921,886.5222711249953,886.5299265420181,887.7722784579964,887.7737629580079,889.0892957079923,889.091059917002,889.906315417029,allgreen,FinalRedContrast,FinalGreenContrast,889.907752041996,890.9234928330407,1,052026gb,001,2026-05-20_10h16.29.999,priming,,2026.1.3,59.996294980563626,2026-05-20 10h16.30.307704 -0700,
GR_Incongruent_GreenCue_RedProbe_Bottom,GreenGaborBoth.png,RedGaborBoth.png,GreenGaborBoth.png,RedGaborDisappearBottom.png,Green.mp3,green,bottom,37,37,0,,,,0,37,37,71,890.9389665420167,,,,,,,,,,,,,,,,bottom,,,,,,,,890.9254126669839,891.3893444170244,891.3895066670375,896.6388615830219,896.6465098750195,897.8890123750316,897.8905092499917,898.6226565000252,898.6242354169954,899.323464791989,allgreen,FinalRedContrast,FinalGreenContrast,899.3237481670221,900.3731835830258,1,052026gb,001,2026-05-20_10h16.29.999,priming,,2026.1.3,59.996294980563626,2026-05-20 10h16.30.307704 -0700,
GR_Incongruent_GreenCue_RedProbe_Top,GreenGaborBoth.png,RedGaborBoth.png,GreenGaborBoth.png,RedGaborDisappearTop.png,Green.mp3,green,top,38,38,0,,,,0,38,38,30,900.3888596670004,,,,,,,,,,,,,,,,bottom,,,,,,,,900.3732881670003,900.7892324170098,900.7893937919871,906.0390097500058,906.0465359170339,907.2888697920134,907.2910626670346,908.8394500830327,908.841484375007,910.7406727080233,mostlygreen,FinalRedContrast,FinalGreenContrast,910.7409964579856,911.5068167499849,1,052026gb,001,2026-05-20_10h16.29.999,priming,,2026.1.3,59.996294980563626,2026-05-20 10h16.30.307704 -0700,
GG_non_riv_catch_GreenCue_GreenProbe_Bottom,GreenGaborBoth.png,Blank.png,GreenGaborDisappearBottom.png,Blank.png,Green.mp3,green,bottom,39,39,0,,,,0,39,39,79,911.5224225420388,,,,,,,,,,,,,,,,bottom,,,,,,,,911.5069272079854,911.8897522080224,911.8899387500132,917.1391558750183,917.1454617920099,918.3889973750338,918.3906448750058,918.939469792007,918.94026725,919.7566053750343,allgreen,FinalRedContrast,FinalGreenContrast,919.7572513750056,920.6732521670056,1,052026gb,001,2026-05-20_10h16.29.999,priming,,2026.1.3,59.996294980563626,2026-05-20 10h16.30.307704 -0700,
GR_Congruent_GreenCue_GreenProbe_Bottom,GreenGaborBoth.png,RedGaborBoth.png,GreenGaborDisappearBottom.png,RedGaborBoth.png,Green.mp3,green,bottom,40,40,0,,,,0,40,40,51,920.6888532080338,,,,,,,,,,,,,,,,bottom,,,,,,,,920.6733944999869,921.0393232500064,921.0394863749971,926.2890616250224,926.2955755000003,927.5390399169992,927.5406251249951,929.0728387080017,929.0744047500193,930.972988833033,mostlyred,FinalRedContrast,FinalGreenContrast,930.9742455829983,931.5070041670115,1,052026gb,001,2026-05-20_10h16.29.999,priming,,2026.1.3,59.996294980563626,2026-05-20 10h16.30.307704 -0700,
GR_Congruent_RedCue_RedProbe_Top,GreenGaborBoth.png,RedGaborBoth.png,GreenGaborBoth.png,RedGaborDisappearTop.png,Red.mp3,red,top,41,41,0,,,,0,41,41,56,931.5224560420029,,,,,,,,,,,,,,,,bottom,,,,,,,,931.5085597080179,931.8726925830124,931.8728524580365,937.1223927920219,937.1300813750131,938.372385042021,938.3740765420371,939.5395212500007,939.5407737920177,941.2233743329998,mostlygreen,FinalRedContrast,FinalGreenContrast,941.2240770829958,942.240057750023,1,052026gb,001,2026-05-20_10h16.29.999,priming,,2026.1.3,59.996294980563626,2026-05-20 10h16.30.307704 -0700,
RR_non_riv_catch_GreenCue_RedProbe_Top,Blank.png,RedGaborBoth.png,Blank.png,RedGaborDisappearTop.png,Green.mp3,green,top,42,42,0,,,,0,42,42,74,942.2556164580164,,,,,,,,,,,,,,,,top,,,,,,,,942.241880082991,942.6393733330187,942.639537458017,947.8891261669924,947.89472070802,949.1391859580181,949.1408109170152,949.9563119169907,949.957666958042,951.0233688750304,allred,FinalRedContrast,FinalGreenContrast,951.0244157920242,951.9233544580056,1,052026gb,001,2026-05-20_10h16.29.999,priming,,2026.1.3,59.996294980563626,2026-05-20 10h16.30.307704 -0700,
GR_Incongruent_RedCue_GreenProbe_Top,GreenGaborBoth.png,RedGaborBoth.png,GreenGaborDisappearTop.png,RedGaborBoth.png,Red.mp3,red,top,43,43,0,,,,0,43,43,12,951.9390933749964,,,,,,,,,,,,,,,,top,,,,,,,,951.9249385420117,952.306177749997,952.3063383330009,957.5558350000065,957.5633915830404,958.8058510420378,958.8072622080217,959.3395680420217,959.3412523749867,960.2399692920153,allgreen,FinalRedContrast,FinalGreenContrast,960.241487457999,960.956663332996,1,052026gb,001,2026-05-20_10h16.29.999,priming,,2026.1.3,59.996294980563626,2026-05-20 10h16.30.307704 -0700,
GR_Congruent_RedCue_RedProbe_Top,GreenGaborBoth.png,RedGaborBoth.png,GreenGaborBoth.png,RedGaborDisappearTop.png,Red.mp3,red,top,44,44,0,,,,0,44,44,40,960.9724184999941,,,,,,,,,,,,,,,,top,,,,,,,,960.9567613750114,966.7728660420398,966.7730325830053,972.0225539579988,972.0289903330267,973.2724038750166,973.2736910000094,974.7062818750273,974.7076363750384,976.7235395000316,evensplit,FinalRedContrast,FinalGreenContrast,976.7238354170113,978.6567134580109,1,052026gb,001,2026-05-20_10h16.29.999,priming,,2026.1.3,59.996294980563626,2026-05-20 10h16.30.307704 -0700,
GR_Congruent_RedCue_RedProbe_Top,GreenGaborBoth.png,RedGaborBoth.png,GreenGaborBoth.png,RedGaborDisappearTop.png,Red.mp3,red,top,45,45,0,,,,0,45,45,24,978.6724716250319,,,,,,,,,,,,,,,,bottom,,,,,,,,978.6568204580108,979.2061405000277,979.2063057500054,984.4559160830104,984.4646312500117,985.7059853750397,985.7075656250236,987.4563532919856,987.4579801670043,988.5068141670199,evensplit,FinalRedContrast,FinalGreenContrast,988.5078239170252,989.9902096670121,1,052026gb,001,2026-05-20_10h16.29.999,priming,,2026.1.3,59.996294980563626,2026-05-20 10h16.30.307704 -0700,
GR_Incongruent_RedCue_GreenProbe_Bottom,GreenGaborBoth.png,RedGaborBoth.png,GreenGaborDisappearBottom.png,RedGaborBoth.png,Red.mp3,red,bottom,46,46,0,,,,0,46,46,61,990.0059443330392,,,,,,,,,,,,,,,,bottom,,,,,,,,989.9903115000343,990.4229452500003,990.4231098750024,995.6725377080147,995.6801170830149,996.9226252920344,996.9240238750353,998.1064268749906,998.1079937500181,999.8567565830308,mostlygreen,FinalRedContrast,FinalGreenContrast,999.8580086249858,1000.4905445830082,1,052026gb,001,2026-05-20_10h16.29.999,priming,,2026.1.3,59.996294980563626,2026-05-20 10h16.30.307704 -0700,
GR_Congruent_GreenCue_GreenProbe_Top,GreenGaborBoth.png,RedGaborBoth.png,GreenGaborDisappearTop.png,RedGaborBoth.png,Green.mp3,green,top,47,47,0,,,,0,47,47,18,1000.5058599580079,,,,,,,,,,,,,,,,bottom,,,,,,,,1000.4924052500282,1000.8728685420356,1000.8730338750174,1006.1226754999952,1006.1302632500301,1007.3726749169873,1007.3744531249977,1008.6902049169876,1008.6910185830202,1010.4067038749927,evensplit,FinalRedContrast,FinalGreenContrast,1010.4079245420289,1011.1236892919987,1,052026gb,001,2026-05-20_10h16.29.999,priming,,2026.1.3,59.996294980563626,2026-05-20 10h16.30.307704 -0700,
GR_Incongruent_RedCue_GreenProbe_Bottom,GreenGaborBoth.png,RedGaborBoth.png,GreenGaborDisappearBottom.png,RedGaborBoth.png,Red.mp3,red,bottom,48,48,0,,,,0,48,48,69,1011.1392860829947,,,,,,,,,,,,,,,,bottom,,,,,,,,1011.1253990420373,1011.7066450419952,1011.7068401669967,1016.9559512500418,1016.962532125006,1018.2061398330261,1018.2074196250178,1019.5069190830109,1019.507503083034,1020.9568795000087,evensplit,FinalRedContrast,FinalGreenContrast,1020.9581593330367,1022.82351091702,1,052026gb,001,2026-05-20_10h16.29.999,priming,,2026.1.3,59.996294980563626,2026-05-20 10h16.30.307704 -0700,
GR_Congruent_GreenCue_GreenProbe_Top,GreenGaborBoth.png,RedGaborBoth.png,GreenGaborDisappearTop.png,RedGaborBoth.png,Green.mp3,green,top,49,49,0,,,,0,49,49,10,1022.8394063329906,,,,,,,,,,,,,,,,top,,,,,,,,1022.8253397500375,1023.4730962500325,1023.4732625000179,1028.7227721250383,1028.7311609580065,1029.9727641250356,1029.9743115830352,1031.2900597500266,1031.2908346250188,1032.3404219170334,evensplit,FinalRedContrast,FinalGreenContrast,1032.3412951250211,1032.99033208302,1,052026gb,001,2026-05-20_10h16.29.999,priming,,2026.1.3,59.996294980563626,2026-05-20 10h16.30.307704 -0700,
GR_Incongruent_GreenCue_RedProbe_Bottom,GreenGaborBoth.png,RedGaborBoth.png,GreenGaborBoth.png,RedGaborDisappearBottom.png,Green.mp3,green,bottom,50,50,0,,,,0,50,50,23,1033.0060524999863,,,,,,,,,,,,,,,,bottom,,,,,,,,1032.9904372500023,1033.3064015420387,1033.3065669169882,1038.5561262500123,1038.5637659580098,1039.8061214580084,1039.807830250007,1041.1897349579958,1041.1914054169902,1042.3735864170012,mostlygreen,FinalRedContrast,FinalGreenContrast,1042.3748066670378,1043.6736065419973,1,052026gb,001,2026-05-20_10h16.29.999,priming,,2026.1.3,59.996294980563626,2026-05-20 10h16.30.307704 -0700,
RR_non_riv_catch_RedCue_RedProbe_Top,Blank.png,RedGaborBoth.png,Blank.png,RedGaborDisappearTop.png,Red.mp3,red,top,51,51,0,,,,0,51,51,72,1043.6893356250366,,,,,,,,,,,,,,,,top,,,,,,,,1043.6752652919968,1046.1231310830335,1046.1232991670258,1051.3727385420352,1051.3795763330418,1052.6228102080058,1052.6246413330082,1053.6233606670285,1053.6243972920347,1054.8569379170076,allred,FinalRedContrast,FinalGreenContrast,1054.8582346250187,1057.4736757079954,2,052026gb,001,2026-05-20_10h16.29.999,priming,,2026.1.3,59.996294980563626,2026-05-20 10h16.30.307704 -0700,
GR_Incongruent_GreenCue_RedProbe_Bottom,GreenGaborBoth.png,RedGaborBoth.png,GreenGaborBoth.png,RedGaborDisappearBottom.png,Green.mp3,green,bottom,52,52,0,,,,0,52,52,63,1057.489512,,,,,,,,,,,,,,,,bottom,,,,,,,,1057.4755376669928,1059.339958125027,1059.3401224580011,1064.5895471670083,1064.596005416999,1065.8396704170154,1065.8415585830226,1066.9233421250246,1066.9248542920104,1067.8571330000414,mostlygreen,FinalRedContrast,FinalGreenContrast,1067.858139833028,1068.5072963330313,1,052026gb,001,2026-05-20_10h16.29.999,priming,,2026.1.3,59.996294980563626,2026-05-20 10h16.30.307704 -0700,
GR_Incongruent_RedCue_GreenProbe_Bottom,GreenGaborBoth.png,RedGaborBoth.png,GreenGaborDisappearBottom.png,RedGaborBoth.png,Red.mp3,red,bottom,53,53,0,,,,0,53,53,5,1068.5227832079981,,,,,,,,,,,,,,,,bottom,,,,,,,,1068.5088601250318,1069.0232228750247,1069.0233865000191,1074.272878082993,1074.2804222080158,1075.522935917019,1075.5246289580246,1076.6067268750048,1076.6078038749984,1077.323714166996,allred,FinalRedContrast,FinalGreenContrast,1077.324863124988,1079.6903724580188,1,052026gb,001,2026-05-20_10h16.29.999,priming,,2026.1.3,59.996294980563626,2026-05-20 10h16.30.307704 -0700,
GR_Incongruent_GreenCue_RedProbe_Bottom,GreenGaborBoth.png,RedGaborBoth.png,GreenGaborBoth.png,RedGaborDisappearBottom.png,Green.mp3,green,bottom,54,54,0,,,,0,54,54,7,1079.7061143330066,,,,,,,,,,,,,,,,bottom,,,,,,,,1079.6922510830336,1080.1233226670302,1080.1234902500291,1085.372889249993,1085.3793782499852,1086.6228521669982,1086.6249604999903,1088.2400054170284,1088.2413282500347,1089.2404087919858,mostlyred,FinalRedContrast,FinalGreenContrast,1089.2410511670168,1090.3405357919983,1,052026gb,001,2026-05-20_10h16.29.999,priming,,2026.1.3,59.996294980563626,2026-05-20 10h16.30.307704 -0700,
GR_Congruent_GreenCue_GreenProbe_Bottom,GreenGaborBoth.png,RedGaborBoth.png,GreenGaborDisappearBottom.png,RedGaborBoth.png,Green.mp3,green,bottom,55,55,0,,,,0,55,55,43,1090.3561287500197,,,,,,,,,,,,,,,,bottom,,,,,,,,1090.340652666986,1090.7732303329976,1090.773393667012,1096.0229540829896,1096.0292837080196,1097.2730777080287,1097.2743240830023,1098.3900780000258,1098.3915372079937,1099.2739259580267,mostlygreen,FinalRedContrast,FinalGreenContrast,1099.274489250034,1100.1075701669906,1,052026gb,001,2026-05-20_10h16.29.999,priming,,2026.1.3,59.996294980563626,2026-05-20 10h16.30.307704 -0700,
GR_Incongruent_RedCue_GreenProbe_Bottom,GreenGaborBoth.png,RedGaborBoth.png,GreenGaborDisappearBottom.png,RedGaborBoth.png,Red.mp3,red,bottom,56,56,0,,,,0,56,56,29,1100.122988292016,,,,,,,,,,,,,,,,bottom,,,,,,,,1100.1093306250405,1100.606644708023,1100.606806292024,1105.85631641699,1105.8627737920033,1107.106390333036,1107.1074056249927,1108.1900702920393,1108.1916609170148,1109.657207000011,mostlygreen,FinalRedContrast,FinalGreenContrast,1109.6581661670352,1110.2404563750024,1,052026gb,001,2026-05-20_10h16.29.999,priming,,2026.1.3,59.996294980563626,2026-05-20 10h16.30.307704 -0700,
GR_Congruent_RedCue_RedProbe_Bottom,GreenGaborBoth.png,RedGaborBoth.png,GreenGaborBoth.png,RedGaborDisappearBottom.png,Red.mp3,red,bottom,57,57,0,,,,0,57,57,17,1110.2562725830358,,,,,,,,,,,,,,,,bottom,,,,,,,,1110.2405532079865,1110.5400456250063,1110.540234917018,1115.7896700000274,1115.7960016250145,1117.0396967499983,1117.040991833026,1118.423462750041,1118.4250036670128,1120.023863792012,mostlyred,FinalRedContrast,FinalGreenContrast,1120.02510966704,1120.8072259580367,1,052026gb,001,2026-05-20_10h16.29.999,priming,,2026.1.3,59.996294980563626,2026-05-20 10h16.30.307704 -0700,
GR_Incongruent_GreenCue_RedProbe_Top,GreenGaborBoth.png,RedGaborBoth.png,GreenGaborBoth.png,RedGaborDisappearTop.png,Green.mp3,green,top,58,58,0,,,,0,58,58,38,1120.8230155830388,,,,,,,,,,,,,,,,bottom,,,,,,,,1120.8090958750108,1121.0737063750275,1121.0738761250395,1126.3229940829915,1126.3305409169989,1127.573041375028,1127.5746581249987,1129.1069156249869,1129.1076142080128,1130.057302000001,mostlyred,FinalRedContrast,FinalGreenContrast,1130.058407250035,1130.7073571670335,1,052026gb,001,2026-05-20_10h16.29.999,priming,,2026.1.3,59.996294980563626,2026-05-20 10h16.30.307704 -0700,
RR_non_riv_catch_RedCue_RedProbe_Bottom,Blank.png,RedGaborBoth.png,Blank.png,RedGaborDisappearBottom.png,Red.mp3,red,bottom,59,59,0,,,,0,59,59,73,1130.72310641699,,,,,,,,,,,,,,,,bottom,,,,,,,,1130.7089495830005,1130.9734354169923,1130.9736012920039,1136.2231321670115,1136.2285601670155,1137.473124333017,1137.474412999989,1138.1068943749997,1138.1076967919944,1138.7905474579893,allred,FinalRedContrast,FinalGreenContrast,1138.7913102080347,1139.9240043330356,2,052026gb,001,2026-05-20_10h16.29.999,priming,,2026.1.3,59.996294980563626,2026-05-20 10h16.30.307704 -0700,
GR_Congruent_GreenCue_GreenProbe_Bottom,GreenGaborBoth.png,RedGaborBoth.png,GreenGaborDisappearBottom.png,RedGaborBoth.png,Green.mp3,green,bottom,60,60,0,,,,0,60,60,11,1139.939814458019,,,,,,,,,,,,,,,,bottom,,,,,,,,1139.9259235830395,1140.3735416670097,1140.3737072920194,1145.6231353330077,1145.6297028330155,1146.8731744579854,1146.8750130829867,1147.6736906670267,1147.6746264169924,1148.6239445829997,mostlyred,FinalRedContrast,FinalGreenContrast,1148.6252269580145,1149.324042125023,1,052026gb,001,2026-05-20_10h16.29.999,priming,,2026.1.3,59.996294980563626,2026-05-20 10h16.30.307704 -0700,
GR_Incongruent_GreenCue_RedProbe_Top,GreenGaborBoth.png,RedGaborBoth.png,GreenGaborBoth.png,RedGaborDisappearTop.png,Green.mp3,green,top,61,61,0,,,,0,61,61,70,1149.339713125024,,,,,,,,,,,,,,,,bottom,,,,,,,,1149.3241495830007,1149.723581750004,1149.7237440830213,1154.9731598329963,1154.9795711670304,1156.2231743750162,1156.2247789580142,1157.1736521670246,1157.1750648749876,1158.590687457996,mostlygreen,FinalRedContrast,FinalGreenContrast,1158.591889208008,1159.2406970830052,2,052026gb,001,2026-05-20_10h16.29.999,priming,,2026.1.3,59.996294980563626,2026-05-20 10h16.30.307704 -0700,
GR_Congruent_RedCue_RedProbe_Top,GreenGaborBoth.png,RedGaborBoth.png,GreenGaborBoth.png,RedGaborDisappearTop.png,Red.mp3,red,top,62,62,0,,,,0,62,62,8,1159.2564137080335,,,,,,,,,,,,,,,,bottom,,,,,,,,1159.2423653330188,1159.540194375033,1159.5403599170386,1164.7898387500318,1164.7963857080322,1166.0398550420068,1166.0412101250258,1167.5903785420232,1167.591429083026,1168.6074061249965,mostlygreen,FinalRedContrast,FinalGreenContrast,1168.6085593749885,1169.4575561670354,1,052026gb,001,2026-05-20_10h16.29.999,priming,,2026.1.3,59.996294980563626,2026-05-20 10h16.30.307704 -0700,
GR_Congruent_RedCue_RedProbe_Bottom,GreenGaborBoth.png,RedGaborBoth.png,GreenGaborBoth.png,RedGaborDisappearBottom.png,Red.mp3,red,bottom,63,63,0,,,,0,63,63,25,1169.4732665829943,,,,,,,,,,,,,,,,bottom,,,,,,,,1169.4576530000195,1169.8569474170217,1169.8571165419999,1175.106622042018,1175.1131340420106,1176.3566458750283,1176.3582741669961,1177.1237246250384,1177.125382750004,1178.0742597500212,mostlygreen,FinalRedContrast,FinalGreenContrast,1178.0746606250177,1178.8074556670035,1,052026gb,001,2026-05-20_10h16.29.999,priming,,2026.1.3,59.996294980563626,2026-05-20 10h16.30.307704 -0700,
GG_non_riv_catch_RedCue_GreenProbe_Top,GreenGaborBoth.png,Blank.png,GreenGaborDisappearTop.png,Blank.png,Red.mp3,red,top,64,64,0,,,,0,64,64,76,1178.8231796670007,,,,,,,,,,,,,,,,top,,,,,,,,1178.8075992499944,1179.0569390419987,1179.0571058330243,1184.3066131669912,1184.3136672500405,1185.556723333022,1185.558254958014,1186.307050833013,1186.3080708750058,1186.924186624994,allgreen,FinalRedContrast,FinalGreenContrast,1186.924678625015,1188.4574138750322,2,052026gb,001,2026-05-20_10h16.29.999,priming,,2026.1.3,59.996294980563626,2026-05-20 10h16.30.307704 -0700,
GR_Congruent_RedCue_RedProbe_Bottom,GreenGaborBoth.png,RedGaborBoth.png,GreenGaborBoth.png,RedGaborDisappearBottom.png,Red.mp3,red,bottom,65,65,0,,,,0,65,65,41,1188.473177625041,,,,,,,,,,,,,,,,bottom,,,,,,,,1188.457513292029,1188.7236626670347,1188.7238262500032,1193.9732255000272,1193.9796914170147,1195.223327042011,1195.2249023329932,1195.9902835420216,1195.9920394580113,1197.0074259579997,mostlyred,FinalRedContrast,FinalGreenContrast,1197.0085705420352,1198.7075272080256,1,052026gb,001,2026-05-20_10h16.29.999,priming,,2026.1.3,59.996294980563626,2026-05-20 10h16.30.307704 -0700,
GR_Congruent_RedCue_RedProbe_Top,GreenGaborBoth.png,RedGaborBoth.png,GreenGaborBoth.png,RedGaborDisappearTop.png,Red.mp3,red,top,66,66,0,,,,0,66,66,16,1198.7231935830205,,,,,,,,,,,,,,,,top,,,,,,,,1198.7076398750069,1198.9902577500325,1198.9904218750307,1204.240083666984,1204.2466539170127,1205.4900158329983,1205.4916121250135,1206.6072187499958,1206.608832292026,1207.8742297920398,evensplit,FinalRedContrast,FinalGreenContrast,1207.875380832993,1208.6747459580074,1,052026gb,001,2026-05-20_10h16.29.999,priming,,2026.1.3,59.996294980563626,2026-05-20 10h16.30.307704 -0700,
GR_Congruent_GreenCue_GreenProbe_Bottom,GreenGaborBoth.png,RedGaborBoth.png,GreenGaborDisappearBottom.png,RedGaborBoth.png,Green.mp3,green,bottom,67,67,0,,,,0,67,67,59,1208.690003167023,,,,,,,,,,,,,,,,bottom,,,,,,,,1208.6765177500201,1208.940366292023,1208.9405306670233,1214.1900364999892,1214.1965769170201,1215.4400964170345,1215.4418854170362,1217.0072565000155,1217.0082837920054,1219.0745750420028,mostlyred,FinalRedContrast,FinalGreenContrast,1219.0748649580055,1219.8912795420038,1,052026gb,001,2026-05-20_10h16.29.999,priming,,2026.1.3,59.996294980563626,2026-05-20 10h16.30.307704 -0700,
RR_non_riv_catch_GreenCue_RedProbe_Bottom,Blank.png,RedGaborBoth.png,Blank.png,RedGaborDisappearBottom.png,Green.mp3,green,bottom,68,68,0,,,,0,68,68,75,1219.90669087501,,,,,,,,,,,,,,,,bottom,,,,,,,,1219.8913877920131,1220.1072050830116,1220.1073779580183,1225.3567871670239,1225.3639790000161,1226.606668625027,1226.6083480420057,1227.6571651670383,1227.658852624998,1228.3856217500288,allred,FinalRedContrast,FinalGreenContrast,1228.3858993750182,1229.174211500038,1,052026gb,001,2026-05-20_10h16.29.999,priming,,2026.1.3,59.996294980563626,2026-05-20 10h16.30.307704 -0700,
GR_Congruent_GreenCue_GreenProbe_Bottom,GreenGaborBoth.png,RedGaborBoth.png,GreenGaborDisappearBottom.png,RedGaborBoth.png,Green.mp3,green,bottom,69,69,0,,,,0,69,69,3,1229.1899926250335,,,,,,,,,,,,,,,,bottom,,,,,,,,1229.174308207992,1229.6069785830332,1229.6071434580372,1234.8567404170171,1234.865002125036,1236.1067903750227,1236.1080613750382,1236.6908592919935,1236.6911215420114,1237.324318042025,mostlyred,FinalRedContrast,FinalGreenContrast,1237.3253919170238,1238.058085124998,2,052026gb,001,2026-05-20_10h16.29.999,priming,,2026.1.3,59.996294980563626,2026-05-20 10h16.30.307704 -0700,
GR_Congruent_RedCue_RedProbe_Bottom,GreenGaborBoth.png,RedGaborBoth.png,GreenGaborBoth.png,RedGaborDisappearBottom.png,Red.mp3,red,bottom,70,70,0,,,,0,70,70,57,1238.0734199170256,,,,,,,,,,,,,,,,bottom,,,,,,,,1238.059626958042,1238.6237294169841,1238.6238918330055,1243.8734969579964,1243.8798378750216,1245.123539125023,1245.1254121669917,1245.773990124988,1245.7754830420017,1247.2410237920121,mostlyred,FinalRedContrast,FinalGreenContrast,1247.2421784169856,1247.8743897500099,1,052026gb,001,2026-05-20_10h16.29.999,priming,,2026.1.3,59.996294980563626,2026-05-20 10h16.30.307704 -0700,
GR_Congruent_GreenCue_GreenProbe_Bottom,GreenGaborBoth.png,RedGaborBoth.png,GreenGaborDisappearBottom.png,RedGaborBoth.png,Green.mp3,green,bottom,71,71,0,,,,0,71,71,67,1247.8901839579921,,,,,,,,,,,,,,,,bottom,,,,,,,,1247.8762070420198,1248.1071906249854,1248.1073583330144,1253.356879708008,1253.3645278330077,1254.6068632919923,1254.6081333330367,1255.7738729169942,1255.7748809580225,1256.357688707998,mostlygreen,FinalRedContrast,FinalGreenContrast,1256.3584506250336,1256.9243815420195,1,052026gb,001,2026-05-20_10h16.29.999,priming,,2026.1.3,59.996294980563626,2026-05-20 10h16.30.307704 -0700,
GR_Incongruent_RedCue_GreenProbe_Top,GreenGaborBoth.png,RedGaborBoth.png,GreenGaborDisappearTop.png,RedGaborBoth.png,Red.mp3,red,top,72,72,0,,,,0,72,72,68,1256.9401010420406,,,,,,,,,,,,,,,,top,,,,,,,,1256.9260779169854,1257.307183708006,1257.3073496249854,1262.556968207995,1262.5645124579896,1263.8068027080153,1263.80865166703,1264.823887333041,1264.8255040000076,1266.0076860830304,mostlygreen,FinalRedContrast,FinalGreenContrast,1266.0087389170076,1266.6578379999846,1,052026gb,001,2026-05-20_10h16.29.999,priming,,2026.1.3,59.996294980563626,2026-05-20 10h16.30.307704 -0700,
GR_Incongruent_RedCue_GreenProbe_Bottom,GreenGaborBoth.png,RedGaborBoth.png,GreenGaborDisappearBottom.png,RedGaborBoth.png,Red.mp3,red,bottom,73,73,0,,,,0,73,73,37,1266.6734973749844,,,,,,,,,,,,,,,,bottom,,,,,,,,1266.657954082999,1266.8905134579982,1266.890680542041,1272.1402864170377,1272.1467809579917,1273.3902438330115,1273.3916488329996,1274.6072696670308,1274.6087131249951,1275.3243961670087,allgreen,FinalRedContrast,FinalGreenContrast,1275.3249519169913,1275.9079647919862,2,052026gb,001,2026-05-20_10h16.29.999,priming,,2026.1.3,59.996294980563626,2026-05-20 10h16.30.307704 -0700,
GR_Congruent_GreenCue_GreenProbe_Bottom,GreenGaborBoth.png,RedGaborBoth.png,GreenGaborDisappearBottom.png,RedGaborBoth.png,Green.mp3,green,bottom,74,74,0,,,,0,74,74,27,1275.9235345420311,,,,,,,,,,,,,,,,bottom,,,,,,,,1275.909783333016,1276.373848874995,1276.3740121670417,1281.6236524580163,1281.6302037499845,1282.8736996250227,1282.8753182920045,1283.624115624989,1283.625242292008,1284.374600250041,allgreen,FinalRedContrast,FinalGreenContrast,1284.3752115000389,1285.0911511669983,1,052026gb,001,2026-05-20_10h16.29.999,priming,,2026.1.3,59.996294980563626,2026-05-20 10h16.30.307704 -0700,
GR_Incongruent_RedCue_GreenProbe_Top,GreenGaborBoth.png,RedGaborBoth.png,GreenGaborDisappearTop.png,RedGaborBoth.png,Red.mp3,red,top,75,75,0,,,,0,75,75,20,1285.106968417007,,,,,,,,,,,,,,,,top,,,,,,,,1285.0928617080208,1285.4240069580264,1285.424167166988,1290.673719124985,1290.681410041987,1291.9237169999979,1291.9257507080329,1293.2407357500051,1293.2419071670156,1294.0412927499856,evensplit,FinalRedContrast,FinalGreenContrast,1294.0424164999858,1294.5577953750035,1,052026gb,001,2026-05-20_10h16.29.999,priming,,2026.1.3,59.996294980563626,2026-05-20 10h16.30.307704 -0700,
GR_Congruent_RedCue_RedProbe_Bottom,GreenGaborBoth.png,RedGaborBoth.png,GreenGaborBoth.png,RedGaborDisappearBottom.png,Red.mp3,red,bottom,76,76,0,,,,0,76,76,65,1294.573702958005,,,,,,,,,,,,,,,,bottom,,,,,,,,1294.5578972920193,1294.8581191670382,1294.8583030420123,1300.1069939580048,1300.1144028750132,1301.3571067079902,1301.3587570830132,1302.3908107500174,1302.3918607080122,1303.8413638750208,mostlygreen,FinalRedContrast,FinalGreenContrast,1303.8424039999954,1304.3247097920394,1,052026gb,001,2026-05-20_10h16.29.999,priming,,2026.1.3,59.996294980563626,2026-05-20 10h16.30.307704 -0700,
GR_Incongruent_GreenCue_RedProbe_Top,GreenGaborBoth.png,RedGaborBoth.png,GreenGaborBoth.png,RedGaborDisappearTop.png,Green.mp3,green,top,77,77,0,,,,0,77,77,6,1304.3402596249944,,,,,,,,,,,,,,,,top,,,,,,,,1304.3266911670216,1304.557440500008,1304.5576218329952,1309.8069820000092,1309.8149783750414,1311.0569810420275,1311.0582099999883,1312.7242201670306,1312.7249632080202,1313.8747512500267,evensplit,FinalRedContrast,FinalGreenContrast,1313.875094167015,1314.6079705830198,1,052026gb,001,2026-05-20_10h16.29.999,priming,,2026.1.3,59.996294980563626,2026-05-20 10h16.30.307704 -0700,
GR_Congruent_RedCue_RedProbe_Top,GreenGaborBoth.png,RedGaborBoth.png,GreenGaborBoth.png,RedGaborDisappearTop.png,Red.mp3,red,top,78,78,0,,,,0,78,78,0,1314.6235704169958,,,,,,,,,,,,,,,,top,,,,,,,,1314.6096778330393,1314.8574297500309,1314.8576101670042,1320.106954207993,1320.1157326250104,1321.3570917500183,1321.3582913330174,1322.5410195420263,1322.5416420830297,1323.7748687500134,evensplit,FinalRedContrast,FinalGreenContrast,1323.7757298329961,1324.4581392920227,1,052026gb,001,2026-05-20_10h16.29.999,priming,,2026.1.3,59.996294980563626,2026-05-20 10h16.30.307704 -0700,
GR_Congruent_RedCue_RedProbe_Top,GreenGaborBoth.png,RedGaborBoth.png,GreenGaborBoth.png,RedGaborDisappearTop.png,Red.mp3,red,top,79,79,0,,,,0,79,79,48,1324.473712792038,,,,,,,,,,,,,,,,top,,,,,,,,1324.4582461669925,1324.7742074580165,1324.7743970419979,1330.0237876669853,1330.0309186250088,1331.2737750830129,1331.2749170830357,1332.49100512499,1332.4917109580128,1334.0081898749922,mostlygreen,FinalRedContrast,FinalGreenContrast,1334.0084984999849,1334.6588597919908,1,052026gb,001,2026-05-20_10h16.29.999,priming,,2026.1.3,59.996294980563626,2026-05-20 10h16.30.307704 -0700,
GR_Incongruent_RedCue_GreenProbe_Top,GreenGaborBoth.png,RedGaborBoth.png,GreenGaborDisappearTop.png,RedGaborBoth.png,Red.mp3,red,top,80,0,1,,,,1,0,80,68,1334.6737188330153,,,,,,,,,,,,,,,,top,,,,,,,,1334.6589681250043,1334.907633416995,1334.9078142500366,1340.1570819999906,1340.1658377920394,1341.4072260000394,1341.4083662499906,1342.3575942920288,1342.3590680829948,1343.4915867919917,mostlygreen,FinalRedContrast,FinalGreenContrast,1343.492335124989,1344.1247502919869,1,052026gb,001,2026-05-20_10h16.29.999,priming,,2026.1.3,59.996294980563626,2026-05-20 10h16.30.307704 -0700,
GR_Incongruent_GreenCue_RedProbe_Top,GreenGaborBoth.png,RedGaborBoth.png,GreenGaborBoth.png,RedGaborDisappearTop.png,Green.mp3,green,top,81,1,1,,,,1,1,81,70,1344.1403795829974,,,,,,,,,,,,,,,,top,,,,,,,,1344.1266576669877,1344.374192917021,1344.374367750017,1349.623696958006,1349.631096541998,1350.8737508750055,1350.8755111250211,1351.541040125012,1351.5417885000352,1352.6913891250151,evensplit,FinalRedContrast,FinalGreenContrast,1352.692501750018,1353.3414975000196,1,052026gb,001,2026-05-20_10h16.29.999,priming,,2026.1.3,59.996294980563626,2026-05-20 10h16.30.307704 -0700,
GR_Incongruent_RedCue_GreenProbe_Bottom,GreenGaborBoth.png,RedGaborBoth.png,GreenGaborDisappearBottom.png,RedGaborBoth.png,Red.mp3,red,bottom,82,2,1,,,,1,2,82,45,1353.357048542006,,,,,,,,,,,,,,,,bottom,,,,,,,,1353.343130208028,1353.5909681670018,1353.591142292018,1358.8404365000315,1358.8477728749858,1360.0904678750085,1360.0923820420285,1361.1076598750078,1361.1084497499978,1361.9413826250238,mostlygreen,FinalRedContrast,FinalGreenContrast,1361.9426440420211,1362.7414911250235,1,052026gb,001,2026-05-20_10h16.29.999,priming,,2026.1.3,59.996294980563626,2026-05-20 10h16.30.307704 -0700,
GR_Congruent_RedCue_RedProbe_Bottom,GreenGaborBoth.png,RedGaborBoth.png,GreenGaborBoth.png,RedGaborDisappearBottom.png,Red.mp3,red,bottom,83,3,1,,,,1,3,83,25,1362.7570241250214,,,,,,,,,,,,,,,,bottom,,,,,,,,1362.7415948330308,1363.0075082500116,1363.0076858330285,1368.257036875002,1368.264328167017,1369.507044124999,1369.5084712920361,1370.4410311669926,1370.4417955829995,1371.758081457985,evensplit,FinalRedContrast,FinalGreenContrast,1371.758397333033,1372.84149195801,2,052026gb,001,2026-05-20_10h16.29.999,priming,,2026.1.3,59.996294980563626,2026-05-20 10h16.30.307704 -0700,
GR_Congruent_GreenCue_GreenProbe_Top,GreenGaborBoth.png,RedGaborBoth.png,GreenGaborDisappearTop.png,RedGaborBoth.png,Green.mp3,green,top,84,4,1,,,,1,4,84,18,1372.8569952080143,,,,,,,,,,,,,,,,top,,,,,,,,1372.8434321249952,1373.2242082920275,1373.224381417036,1378.4737655000063,1378.4813744170242,1379.7238376250025,1379.7254018330132,1380.4076647080365,1380.4084611670114,1381.724672042008,mostlygreen,FinalRedContrast,FinalGreenContrast,1381.7250538330409,1385.0081383330398,3,052026gb,001,2026-05-20_10h16.29.999,priming,,2026.1.3,59.996294980563626,2026-05-20 10h16.30.307704 -0700,
GR_Congruent_RedCue_RedProbe_Top,GreenGaborBoth.png,RedGaborBoth.png,GreenGaborBoth.png,RedGaborDisappearTop.png,Red.mp3,red,top,85,5,1,,,,1,5,85,48,1385.023692000017,,,,,,,,,,,,,,,,top,,,,,,,,1385.0098229169962,1392.324134042021,1392.3243149170303,1397.5737847079872,1397.58264245803,1398.823871917033,1398.825837667042,1400.4244801669847,1400.4252155420254,1402.0749479579972,mostlygreen,FinalRedContrast,FinalGreenContrast,1402.0752770830295,1403.6249337919871,3,052026gb,001,2026-05-20_10h16.29.999,priming,,2026.1.3,59.996294980563626,2026-05-20 10h16.30.307704 -0700,
GR_Congruent_RedCue_RedProbe_Bottom,GreenGaborBoth.png,RedGaborBoth.png,GreenGaborBoth.png,RedGaborDisappearBottom.png,Red.mp3,red,bottom,86,6,1,,,,1,6,86,57,1403.6404685830348,,,,,,,,,,,,,,,,bottom,,,,,,,,1403.6250568330288,1404.0242642500089,1404.0244369580178,1409.2738678749884,1409.282660458004,1410.5238455830258,1410.5249594580382,1413.025245041994,1413.025654166995,1415.6081981669995,mostlygreen,FinalRedContrast,FinalGreenContrast,1415.608803583018,1417.0415819170303,1,052026gb,001,2026-05-20_10h16.29.999,priming,,2026.1.3,59.996294980563626,2026-05-20 10h16.30.307704 -0700,
GR_Congruent_GreenCue_GreenProbe_Bottom,GreenGaborBoth.png,RedGaborBoth.png,GreenGaborDisappearBottom.png,RedGaborBoth.png,Green.mp3,green,bottom,87,7,1,,,,1,7,87,35,1417.0571515830234,,,,,,,,,,,,,,,,bottom,,,,,,,,1417.0434560420108,1417.4910450830357,1417.4912190419855,1422.7405066250358,1422.7490276250173,1423.990576000011,1423.992531292024,1425.007815457997,1425.0087292920216,1425.641756833007,mostlygreen,FinalRedContrast,FinalGreenContrast,1425.642061416991,1427.04215904203,1,052026gb,001,2026-05-20_10h16.29.999,priming,,2026.1.3,59.996294980563626,2026-05-20 10h16.30.307704 -0700,
GR_Congruent_RedCue_RedProbe_Bottom,GreenGaborBoth.png,RedGaborBoth.png,GreenGaborBoth.png,RedGaborDisappearBottom.png,Red.mp3,red,bottom,88,8,1,,,,1,8,88,17,1427.057152583031,,,,,,,,,,,,,,,,bottom,,,,,,,,1427.0439463750226,1427.407670458022,1427.4078445420018,1432.657169083017,1432.6650350420387,1433.9072502920171,1433.9085896250326,1434.9079062920064,1434.9086959999986,1436.674957250012,evensplit,FinalRedContrast,FinalGreenContrast,1436.6758333329926,1437.2749544580001,1,052026gb,001,2026-05-20_10h16.29.999,priming,,2026.1.3,59.996294980563626,2026-05-20 10h16.30.307704 -0700,
GR_Incongruent_RedCue_GreenProbe_Bottom,GreenGaborBoth.png,RedGaborBoth.png,GreenGaborDisappearBottom.png,RedGaborBoth.png,Red.mp3,red,bottom,89,9,1,,,,1,9,89,37,1437.2905510420096,,,,,,,,,,,,,,,,bottom,,,,,,,,1437.2750619170256,1437.5576691250317,1437.5578370830044,1442.807227207988,1442.8147884170176,1444.0574816670269,1444.0589794170228,1444.9576313750003,1444.9588265829952,1446.8248065829976,mostlyred,FinalRedContrast,FinalGreenContrast,1446.82526529202,1447.8414850829868,1,052026gb,001,2026-05-20_10h16.29.999,priming,,2026.1.3,59.996294980563626,2026-05-20 10h16.30.307704 -0700,
GR_Congruent_GreenCue_GreenProbe_Top,GreenGaborBoth.png,RedGaborBoth.png,GreenGaborDisappearTop.png,RedGaborBoth.png,Green.mp3,green,top,90,10,1,,,,1,10,90,58,1447.8572275000042,,,,,,,,,,,,,,,,top,,,,,,,,1447.8432827499928,1448.1408697080333,1448.141032457992,1453.3906270830194,1453.3986707919976,1454.640657083015,1454.642149457999,1455.5410222079954,1455.5426448750077,1456.9913995829993,evensplit,FinalRedContrast,FinalGreenContrast,1456.992565291992,1457.6080288329977,1,052026gb,001,2026-05-20_10h16.29.999,priming,,2026.1.3,59.996294980563626,2026-05-20 10h16.30.307704 -0700,
GR_Congruent_RedCue_RedProbe_Top,GreenGaborBoth.png,RedGaborBoth.png,GreenGaborBoth.png,RedGaborDisappearTop.png,Red.mp3,red,top,91,11,1,,,,1,11,91,0,1457.6237819170346,,,,,,,,,,,,,,,,top,,,,,,,,1457.6097813330125,1457.824621250038,1457.8247912920197,1463.0738563750056,1463.0818379170378,1464.323872125009,1464.325565667008,1465.75761387503,1465.7595656249905,1466.607998416992,evensplit,FinalRedContrast,FinalGreenContrast,1466.6087392920163,1467.5581159170251,1,052026gb,001,2026-05-20_10h16.29.999,priming,,2026.1.3,59.996294980563626,2026-05-20 10h16.30.307704 -0700,
GR_Congruent_RedCue_RedProbe_Top,GreenGaborBoth.png,RedGaborBoth.png,GreenGaborBoth.png,RedGaborDisappearTop.png,Red.mp3,red,top,92,12,1,,,,1,12,92,40,1467.5738335420028,,,,,,,,,,,,,,,,top,,,,,,,,1467.5582228330313,1476.7243546250393,1476.7245176249999,1481.9741820420022,1481.9806062920252,1483.2240832080133,1483.225455042033,1484.3077852920396,1484.3092854170245,1485.5249004579964,mostlygreen,FinalRedContrast,FinalGreenContrast,1485.525695791992,1486.0416979170404,1,052026gb,001,2026-05-20_10h16.29.999,priming,,2026.1.3,59.996294980563626,2026-05-20 10h16.30.307704 -0700,
GR_Congruent_GreenCue_GreenProbe_Top,GreenGaborBoth.png,RedGaborBoth.png,GreenGaborDisappearTop.png,RedGaborBoth.png,Green.mp3,green,top,93,13,1,,,,1,13,93,2,1486.0573347919853,,,,,,,,,,,,,,,,top,,,,,,,,1486.0436553329928,1486.2743762499886,1486.2745416670223,1491.5240587920416,1491.530525457987,1492.7740606670268,1492.7760828330065,1494.2911759170238,1494.2928260419867,1495.1416035830043,allgreen,FinalRedContrast,FinalGreenContrast,1495.1427041669958,1496.2081186670111,1,052026gb,001,2026-05-20_10h16.29.999,priming,,2026.1.3,59.996294980563626,2026-05-20 10h16.30.307704 -0700,
GR_Incongruent_GreenCue_RedProbe_Bottom,GreenGaborBoth.png,RedGaborBoth.png,GreenGaborBoth.png,RedGaborDisappearBottom.png,Green.mp3,green,bottom,94,14,1,,,,1,14,94,23,1496.2239732079906,,,,,,,,,,,,,,,,bottom,,,,,,,,1496.2082174579846,1496.5077588330023,1496.5079226670205,1501.7572675420088,1501.7636877080076,1503.0072855420294,1503.0088221670012,1503.9577730420278,1503.9596182919922,1504.9415842919843,evensplit,FinalRedContrast,FinalGreenContrast,1504.9426365830004,1505.6249627920333,1,052026gb,001,2026-05-20_10h16.29.999,priming,,2026.1.3,59.996294980563626,2026-05-20 10h16.30.307704 -0700,
GR_Congruent_GreenCue_GreenProbe_Top,GreenGaborBoth.png,RedGaborBoth.png,GreenGaborDisappearTop.png,RedGaborBoth.png,Green.mp3,green,top,95,15,1,,,,1,15,95,10,1505.6406972080003,,,,,,,,,,,,,,,,top,,,,,,,,1505.6250975420116,1505.9411286250106,1505.9412909580278,1511.1906793329981,1511.197083792009,1512.4406506670057,1512.4421690420131,1513.124420874985,1513.1260830829851,1513.941614374984,mostlygreen,FinalRedContrast,FinalGreenContrast,1513.9421617499902,1514.341632458032,1,052026gb,001,2026-05-20_10h16.29.999,priming,,2026.1.3,59.996294980563626,2026-05-20 10h16.30.307704 -0700,
GR_Incongruent_RedCue_GreenProbe_Bottom,GreenGaborBoth.png,RedGaborBoth.png,GreenGaborDisappearBottom.png,RedGaborBoth.png,Red.mp3,red,bottom,96,16,1,,,,1,16,96,29,1514.357329667022,,,,,,,,,,,,,,,,bottom,,,,,,,,1514.3432396670105,1514.6243700830382,1514.624534167,1519.873982833,1519.8804238750017,1521.1240218330058,1521.125773250009,1521.8745936250198,1521.8757684170268,1522.608130083012,mostlygreen,FinalRedContrast,FinalGreenContrast,1522.6088771250215,1523.4418778750114,1,052026gb,001,2026-05-20_10h16.29.999,priming,,2026.1.3,59.996294980563626,2026-05-20 10h16.30.307704 -0700,
GR_Congruent_RedCue_RedProbe_Top,GreenGaborBoth.png,RedGaborBoth.png,GreenGaborBoth.png,RedGaborDisappearTop.png,Red.mp3,red,top,97,17,1,,,,1,17,97,56,1523.4574145000079,,,,,,,,,,,,,,,,top,,,,,,,,1523.4419796669972,1523.9578527919948,1523.958017625031,1529.2074800420087,1529.2138512920355,1530.4575715000392,1530.4592454170343,1531.7912298330339,1531.7929181249929,1532.9917464579921,evensplit,FinalRedContrast,FinalGreenContrast,1532.9926782920375,1533.8251411250094,1,052026gb,001,2026-05-20_10h16.29.999,priming,,2026.1.3,59.996294980563626,2026-05-20 10h16.30.307704 -0700,
GR_Congruent_GreenCue_GreenProbe_Bottom,GreenGaborBoth.png,RedGaborBoth.png,GreenGaborDisappearBottom.png,RedGaborBoth.png,Green.mp3,green,bottom,98,18,1,,,,1,18,98,3,1533.840844166989,,,,,,,,,,,,,,,,bottom,,,,,,,,1533.826959375001,1534.1745585420285,1534.1747215000214,1539.424300957995,1539.4308014999842,1540.6742043750128,1540.67601879203,1541.3746187080396,1541.3760824170313,1541.991729958041,mostlygreen,FinalRedContrast,FinalGreenContrast,1541.9923274170142,1542.6750729579944,1,052026gb,001,2026-05-20_10h16.29.999,priming,,2026.1.3,59.996294980563626,2026-05-20 10h16.30.307704 -0700,
GR_Congruent_RedCue_RedProbe_Top,GreenGaborBoth.png,RedGaborBoth.png,GreenGaborBoth.png,RedGaborDisappearTop.png,Red.mp3,red,top,99,19,1,,,,1,19,99,24,1542.6908376670326,,,,,,,,,,,,,,,,top,,,,,,,,1542.6766239170101,1543.0082049579942,1543.0084034579922,1548.2575364580262,1548.263936042029,1549.507572041999,1549.5090331250103,1550.1413681670092,1550.1425670420285,1551.3249902080279,evensplit,FinalRedContrast,FinalGreenContrast,1551.3261761250324,1552.058344124991,1,052026gb,001,2026-05-20_10h16.29.999,priming,,2026.1.3,59.996294980563626,2026-05-20 10h16.30.307704 -0700,
GR_Incongruent_GreenCue_RedProbe_Top,GreenGaborBoth.png,RedGaborBoth.png,GreenGaborBoth.png,RedGaborDisappearTop.png,Green.mp3,green,top,100,20,1,,,,1,20,100,46,1552.074194832996,,,,,,,,,,,,,,,,top,,,,,,,,1552.060295208008,1552.424436250003,1552.4246041250299,1557.674104500038,1557.6805635830387,1558.9241412919946,1558.9259160000365,1559.54125858302,1559.5429561249912,1560.4917080420419,evensplit,FinalRedContrast,FinalGreenContrast,1560.4928551249905,1561.1583320419886,1,052026gb,001,2026-05-20_10h16.29.999,priming,,2026.1.3,59.996294980563626,2026-05-20 10h16.30.307704 -0700,
GR_Congruent_GreenCue_GreenProbe_Top,GreenGaborBoth.png,RedGaborBoth.png,GreenGaborDisappearTop.png,RedGaborBoth.png,Green.mp3,green,top,101,21,1,,,,1,21,101,66,1561.1742346250103,,,,,,,,,,,,,,,,top,,,,,,,,1561.1584305830183,1561.4413577080122,1561.4415415000403,1566.6908406250295,1566.6972071250202,1567.9409959579934,1567.942872167041,1568.608042042004,1568.6094693330233,1569.375177375041,allgreen,FinalRedContrast,FinalGreenContrast,1569.3760012920247,1570.57512004202,1,052026gb,001,2026-05-20_10h16.29.999,priming,,2026.1.3,59.996294980563626,2026-05-20 10h16.30.307704 -0700,
GR_Incongruent_RedCue_GreenProbe_Bottom,GreenGaborBoth.png,RedGaborBoth.png,GreenGaborDisappearBottom.png,RedGaborBoth.png,Red.mp3,red,bottom,102,22,1,,,,1,22,102,13,1570.5909483750002,,,,,,,,,,,,,,,,bottom,,,,,,,,1570.5767456670292,1571.0250782920048,1571.0252549580182,1576.2742521670298,1576.2806097079883,1577.5243025830132,1577.526374167006,1578.2746411670232,1578.2758156670025,1579.3751007920364,allgreen,FinalRedContrast,FinalGreenContrast,1579.3760652919882,1580.291888250038,1,052026gb,001,2026-05-20_10h16.29.999,priming,,2026.1.3,59.996294980563626,2026-05-20 10h16.30.307704 -0700,
GR_Incongruent_GreenCue_RedProbe_Top,GreenGaborBoth.png,RedGaborBoth.png,GreenGaborBoth.png,RedGaborDisappearTop.png,Green.mp3,green,top,103,23,1,,,,1,23,103,6,1580.307503833028,,,,,,,,,,,,,,,,top,,,,,,,,1580.293826707988,1580.5912731250282,1580.591440416989,1585.8410337920068,1585.8474509170046,1587.090936292021,1587.0925667920383,1588.358032167016,1588.3592748750234,1591.2585497500258,evensplit,FinalRedContrast,FinalGreenContrast,1591.2592773330398,1592.2419997919933,1,052026gb,001,2026-05-20_10h16.29.999,priming,,2026.1.3,59.996294980563626,2026-05-20 10h16.30.307704 -0700,
GR_Congruent_GreenCue_GreenProbe_Bottom,GreenGaborBoth.png,RedGaborBoth.png,GreenGaborDisappearBottom.png,RedGaborBoth.png,Green.mp3,green,bottom,104,24,1,,,,1,24,104,27,1592.2576444580336,,,,,,,,,,,,,,,,bottom,,,,,,,,1592.2420987919904,1740.6917947499896,1740.6919581250404,1745.9415123750223,1745.9480285830214,1747.1915192080196,1747.1928292500088,1748.075314042042,1748.076467542036,1749.3756489580264,mostlygreen,FinalRedContrast,FinalGreenContrast,1749.3762363750138,1750.375553333026,1,052026gb,001,2026-05-20_10h16.29.999,priming,,2026.1.3,59.996294980563626,2026-05-20 10h16.30.307704 -0700,
GG_non_riv_catch_GreenCue_GreenProbe_Bottom,GreenGaborBoth.png,Blank.png,GreenGaborDisappearBottom.png,Blank.png,Green.mp3,green,bottom,105,25,1,,,,1,25,105,79,1750.3914127920289,,,,,,,,,,,,,,,,bottom,,,,,,,,1750.3756787080201,1750.792268124991,1750.7924397499883,1756.041498125007,1756.0488101670053,1757.2914406250347,1757.2936527500278,1757.8420096249902,1757.8430638330174,1758.7424676250084,allgreen,FinalRedContrast,FinalGreenContrast,1758.7430632500327,1760.8094937920105,3,052026gb,001,2026-05-20_10h16.29.999,priming,,2026.1.3,59.996294980563626,2026-05-20 10h16.30.307704 -0700,
GR_Incongruent_GreenCue_RedProbe_Bottom,GreenGaborBoth.png,RedGaborBoth.png,GreenGaborBoth.png,RedGaborDisappearBottom.png,Green.mp3,green,bottom,106,26,1,,,,1,26,106,31,1760.8246937080403,,,,,,,,,,,,,,,,bottom,,,,,,,,1760.8095918750041,1761.5751549580018,1761.5753222500207,1766.82482470799,1766.8311646670336,1768.0747657080065,1768.076472249988,1769.075287249987,1769.0762795420014,1770.0092070000246,mostlygreen,FinalRedContrast,FinalGreenContrast,1770.0100124580204,1770.3924884580192,1,052026gb,001,2026-05-20_10h16.29.999,priming,,2026.1.3,59.996294980563626,2026-05-20 10h16.30.307704 -0700,
RR_non_riv_catch_RedCue_RedProbe_Top,Blank.png,RedGaborBoth.png,Blank.png,RedGaborDisappearTop.png,Red.mp3,red,top,107,27,1,,,,1,27,107,72,1770.4081691669999,,,,,,,,,,,,,,,,top,,,,,,,,1770.3940489580273,1770.7586030419916,1770.7587660420104,1776.008124792017,1776.013533874997,1777.2581891670125,1777.2598490830278,1777.8587371670292,1777.8603320830152,1778.5090354169952,allred,FinalRedContrast,FinalGreenContrast,1778.5096977920039,1780.775763541984,2,052026gb,001,2026-05-20_10h16.29.999,priming,,2026.1.3,59.996294980563626,2026-05-20 10h16.30.307704 -0700,
GG_non_riv_catch_RedCue_GreenProbe_Bottom,GreenGaborBoth.png,Blank.png,GreenGaborDisappearBottom.png,Blank.png,Red.mp3,red,bottom,108,28,1,,,,1,28,108,77,1780.7915041249944,,,,,,,,,,,,,,,,bottom,,,,,,,,1780.7758596250205,1781.1418984580087,1781.142061999999,1786.3916948330007,1786.3970652500284,1787.6416211670148,1787.6428109580302,1788.1759681670228,1788.1766067499993,1788.9424837080296,allgreen,FinalRedContrast,FinalGreenContrast,1788.9435180830187,1789.8591735000373,1,052026gb,001,2026-05-20_10h16.29.999,priming,,2026.1.3,59.996294980563626,2026-05-20 10h16.30.307704 -0700,
GR_Congruent_GreenCue_GreenProbe_Bottom,GreenGaborBoth.png,RedGaborBoth.png,GreenGaborDisappearBottom.png,RedGaborBoth.png,Green.mp3,green,bottom,109,29,1,,,,1,29,109,19,1789.8748767499928,,,,,,,,,,,,,,,,bottom,,,,,,,,1789.86112008302,1790.275253000029,1790.275419624988,1795.5249315000256,1795.5312702500378,1796.7748853749945,1796.7766470829956,1797.4921131249866,1797.493181458034,1798.5927736670128,mostlygreen,FinalRedContrast,FinalGreenContrast,1798.5930646670167,1799.1761845829897,1,052026gb,001,2026-05-20_10h16.29.999,priming,,2026.1.3,59.996294980563626,2026-05-20 10h16.30.307704 -0700,
GG_non_riv_catch_GreenCue_GreenProbe_Top,GreenGaborBoth.png,Blank.png,GreenGaborDisappearTop.png,Blank.png,Green.mp3,green,top,110,30,1,,,,1,30,110,78,1799.19156604202,,,,,,,,,,,,,,,,top,,,,,,,,1799.1763403750374,1799.4253195830388,1799.425480667036,1804.6749044170137,1804.680298332998,1805.9249012499931,1805.9267454580404,1806.6254170830362,1806.626107875025,1807.1930159170297,allgreen,FinalRedContrast,FinalGreenContrast,1807.1932718750322,1807.8591167920385,1,052026gb,001,2026-05-20_10h16.29.999,priming,,2026.1.3,59.996294980563626,2026-05-20 10h16.30.307704 -0700,
GR_Incongruent_GreenCue_RedProbe_Top,GreenGaborBoth.png,RedGaborBoth.png,GreenGaborBoth.png,RedGaborDisappearTop.png,Green.mp3,green,top,111,31,1,,,,1,31,111,22,1807.8749454580247,,,,,,,,,,,,,,,,top,,,,,,,,1807.8592134169885,1808.2919608330121,1808.2921265829937,1813.5415040419903,1813.5477683329955,1814.7916413749917,1814.7931940419949,1815.6086557499948,1815.6102743330412,1816.592369583028,evensplit,FinalRedContrast,FinalGreenContrast,1816.5935187499854,1817.1093130829977,1,052026gb,001,2026-05-20_10h16.29.999,priming,,2026.1.3,59.996294980563626,2026-05-20 10h16.30.307704 -0700,
GG_non_riv_catch_RedCue_GreenProbe_Top,GreenGaborBoth.png,Blank.png,GreenGaborDisappearTop.png,Blank.png,Red.mp3,red,top,112,32,1,,,,1,32,112,76,1817.1249354170286,,,,,,,,,,,,,,,,top,,,,,,,,1817.1109220419894,1817.3252362080384,1817.325399333029,1822.5749739169842,1822.5803174580215,1823.8250859580003,1823.8271431670291,1824.4255112080136,1824.426704249985,1825.3092637920054,allgreen,FinalRedContrast,FinalGreenContrast,1825.3104744169977,1825.7760938749998,1,052026gb,001,2026-05-20_10h16.29.999,priming,,2026.1.3,59.996294980563626,2026-05-20 10h16.30.307704 -0700,
GR_Incongruent_RedCue_GreenProbe_Top,GreenGaborBoth.png,RedGaborBoth.png,GreenGaborDisappearTop.png,RedGaborBoth.png,Red.mp3,red,top,113,33,1,,,,1,33,113,28,1825.7916422500275,,,,,,,,,,,,,,,,top,,,,,,,,1825.7761915000156,1826.0420659999945,1826.0422341250232,1831.2917385420296,1831.298191583017,1832.5417110830313,1832.543254417018,1833.9087762919953,1833.9104744170327,1835.3760898750043,mostlygreen,FinalRedContrast,FinalGreenContrast,1835.3764226670028,1835.859295833041,1,052026gb,001,2026-05-20_10h16.29.999,priming,,2026.1.3,59.996294980563626,2026-05-20 10h16.30.307704 -0700,
GR_Congruent_RedCue_RedProbe_Top,GreenGaborBoth.png,RedGaborBoth.png,GreenGaborBoth.png,RedGaborDisappearTop.png,Red.mp3,red,top,114,34,1,,,,1,34,114,16,1835.8749427500297,,,,,,,,,,,,,,,,top,,,,,,,,1835.8593933330267,1836.1587225000258,1836.158888750011,1841.4083980830037,1841.4148290000157,1842.6584650420118,1842.660187542031,1843.5422895000083,1843.543339291995,1844.6096202920307,evensplit,FinalRedContrast,FinalGreenContrast,1844.6099085420137,1844.959192875016,1,052026gb,001,2026-05-20_10h16.29.999,priming,,2026.1.3,59.996294980563626,2026-05-20 10h16.30.307704 -0700,
GR_Congruent_RedCue_RedProbe_Bottom,GreenGaborBoth.png,RedGaborBoth.png,GreenGaborBoth.png,RedGaborDisappearBottom.png,Red.mp3,red,bottom,115,35,1,,,,1,35,115,41,1844.9750078750076,,,,,,,,,,,,,,,,bottom,,,,,,,,1844.9593122079968,1845.4087276670034,1845.4088878330076,1850.6583692920394,1850.664612292021,1851.9084111670381,1851.9098132500076,1852.5089958750177,1852.5098757080268,1853.4093199580093,evensplit,FinalRedContrast,FinalGreenContrast,1853.4096221670043,1854.0093943750253,1,052026gb,001,2026-05-20_10h16.29.999,priming,,2026.1.3,59.996294980563626,2026-05-20 10h16.30.307704 -0700,
GR_Incongruent_GreenCue_RedProbe_Top,GreenGaborBoth.png,RedGaborBoth.png,GreenGaborBoth.png,RedGaborDisappearTop.png,Green.mp3,green,top,116,36,1,,,,1,36,116,30,1854.0250237919972,,,,,,,,,,,,,,,,top,,,,,,,,1854.0112044170382,1854.258919666987,1854.2590876250179,1859.5084234999958,1859.5146978329867,1860.7585720419884,1860.760233832989,1861.3089177500224,1861.3106384580024,1862.6595147500047,evensplit,FinalRedContrast,FinalGreenContrast,1862.659809292003,1863.2260104170418,1,052026gb,001,2026-05-20_10h16.29.999,priming,,2026.1.3,59.996294980563626,2026-05-20 10h16.30.307704 -0700,
GR_Incongruent_GreenCue_RedProbe_Top,GreenGaborBoth.png,RedGaborBoth.png,GreenGaborBoth.png,RedGaborDisappearTop.png,Green.mp3,green,top,117,37,1,,,,1,37,117,14,1863.2418909170083,,,,,,,,,,,,,,,,top,,,,,,,,1863.2261049170047,1863.458867917012,1863.4590300830314,1868.7085822080262,1868.7148808329948,1869.9585597080295,1869.9602315000375,1870.6756610830198,1870.677058833011,1871.3763631249894,evensplit,FinalRedContrast,FinalGreenContrast,1871.3766315419925,1871.9093288750155,1,052026gb,001,2026-05-20_10h16.29.999,priming,,2026.1.3,59.996294980563626,2026-05-20 10h16.30.307704 -0700,
GR_Congruent_GreenCue_GreenProbe_Top,GreenGaborBoth.png,RedGaborBoth.png,GreenGaborDisappearTop.png,RedGaborBoth.png,Green.mp3,green,top,118,38,1,,,,1,38,118,42,1871.925131750002,,,,,,,,,,,,,,,,top,,,,,,,,1871.9094255419914,1872.12546499999,1872.1256302919937,1877.375116042036,1877.3814597500023,1878.62515979202,1878.6264980420237,1879.7255675420165,1879.7274534170283,1880.5260508329957,evensplit,FinalRedContrast,FinalGreenContrast,1880.5268647079938,1881.0427342919866,1,052026gb,001,2026-05-20_10h16.29.999,priming,,2026.1.3,59.996294980563626,2026-05-20 10h16.30.307704 -0700,
GR_Incongruent_GreenCue_RedProbe_Top,GreenGaborBoth.png,RedGaborBoth.png,GreenGaborBoth.png,RedGaborDisappearTop.png,Green.mp3,green,top,119,39,1,,,,1,39,119,54,1881.0584552499931,,,,,,,,,,,,,,,,top,,,,,,,,1881.0428316670004,1881.2921956250211,1881.2923599170172,1886.5418965420104,1886.5481540830224,1887.7918623749865,1887.7936990419985,1888.4589494999964,1888.460101708013,1889.4093960000318,mostlyred,FinalRedContrast,FinalGreenContrast,1889.4096898750286,1890.0759902920108,1,052026gb,001,2026-05-20_10h16.29.999,priming,,2026.1.3,59.996294980563626,2026-05-20 10h16.30.307704 -0700,
GR_Congruent_RedCue_RedProbe_Top,GreenGaborBoth.png,RedGaborBoth.png,GreenGaborBoth.png,RedGaborDisappearTop.png,Red.mp3,red,top,120,40,1,,,,1,40,120,8,1890.0918294580188,,,,,,,,,,,,,,,,top,,,,,,,,1890.077618875017,1890.325537458004,1890.3257032500114,1895.5752161670243,1895.581583000021,1896.825195249985,1896.8267152500339,1897.6089757920126,1897.6097563329968,1899.0259844170068,evensplit,FinalRedContrast,FinalGreenContrast,1899.0272618749877,1899.8927761249943,1,052026gb,001,2026-05-20_10h16.29.999,priming,,2026.1.3,59.996294980563626,2026-05-20 10h16.30.307704 -0700,
GR_Congruent_RedCue_RedProbe_Bottom,GreenGaborBoth.png,RedGaborBoth.png,GreenGaborBoth.png,RedGaborDisappearBottom.png,Red.mp3,red,bottom,121,41,1,,,,1,41,121,49,1899.9085005000234,,,,,,,,,,,,,,,,bottom,,,,,,,,1899.892880416999,1900.1755890420172,1900.1757553750067,1905.425318167021,1905.4316426250152,1906.6753468330135,1906.6767593330005,1907.709129291994,1907.709891458042,1908.8428693329915,evensplit,FinalRedContrast,FinalGreenContrast,1908.8441833750112,1910.226203667,1,052026gb,001,2026-05-20_10h16.29.999,priming,,2026.1.3,59.996294980563626,2026-05-20 10h16.30.307704 -0700,
GR_Incongruent_RedCue_GreenProbe_Bottom,GreenGaborBoth.png,RedGaborBoth.png,GreenGaborDisappearBottom.png,RedGaborBoth.png,Red.mp3,red,bottom,122,42,1,,,,1,42,122,61,1910.2419214170077,,,,,,,,,,,,,,,,bottom,,,,,,,,1910.2263094999944,1910.6590215830365,1910.659182375006,1915.9086577499984,1915.9150647920324,1917.15864400001,1917.160318707989,1917.8258534999914,1917.826901958033,1919.0095648749848,mostlygreen,FinalRedContrast,FinalGreenContrast,1919.010206707986,1919.5596568330075,1,052026gb,001,2026-05-20_10h16.29.999,priming,,2026.1.3,59.996294980563626,2026-05-20 10h16.30.307704 -0700,
GR_Incongruent_RedCue_GreenProbe_Top,GreenGaborBoth.png,RedGaborBoth.png,GreenGaborDisappearTop.png,RedGaborBoth.png,Red.mp3,red,top,123,43,1,,,,1,43,123,4,1919.5753147500218,,,,,,,,,,,,,,,,top,,,,,,,,1919.5597663330263,1919.8094098329893,1919.8095955420285,1925.0587765829987,1925.0651886670385,1926.308702957991,1926.3104558750056,1927.559136750002,1927.5603113750112,1929.0427783750347,evensplit,FinalRedContrast,FinalGreenContrast,1929.0438673330355,1929.3599309170386,1,052026gb,001,2026-05-20_10h16.29.999,priming,,2026.1.3,59.996294980563626,2026-05-20 10h16.30.307704 -0700,
GR_Incongruent_RedCue_GreenProbe_Bottom,GreenGaborBoth.png,RedGaborBoth.png,GreenGaborDisappearBottom.png,RedGaborBoth.png,Red.mp3,red,bottom,124,44,1,,,,1,44,124,69,1929.37535841699,,,,,,,,,,,,,,,,bottom,,,,,,,,1929.360034000012,1929.6757356669987,1929.6758985419874,1934.9252900420106,1934.9319128750358,1936.175420249987,1936.1766375420266,1936.892558833002,1936.8940409999923,1938.0595397920115,mostlyred,FinalRedContrast,FinalGreenContrast,1938.060323624988,1938.8095967500121,1,052026gb,001,2026-05-20_10h16.29.999,priming,,2026.1.3,59.996294980563626,2026-05-20 10h16.30.307704 -0700,
GR_Incongruent_GreenCue_RedProbe_Bottom,GreenGaborBoth.png,RedGaborBoth.png,GreenGaborBoth.png,RedGaborDisappearBottom.png,Green.mp3,green,bottom,125,45,1,,,,1,45,125,63,1938.8253350000014,,,,,,,,,,,,,,,,bottom,,,,,,,,1938.8113827080233,1939.0756345000118,1939.0758005829994,1944.3254980000202,1944.3319048749981,1945.575432499987,1945.5770044579986,1946.8757793330005,1946.8774295829935,1947.9763000000385,mostlygreen,FinalRedContrast,FinalGreenContrast,1947.9766217499855,1948.676304291992,1,052026gb,001,2026-05-20_10h16.29.999,priming,,2026.1.3,59.996294980563626,2026-05-20 10h16.30.307704 -0700,
GR_Incongruent_GreenCue_RedProbe_Top,GreenGaborBoth.png,RedGaborBoth.png,GreenGaborBoth.png,RedGaborDisappearTop.png,Green.mp3,green,top,126,46,1,,,,1,46,126,38,1948.6920457080123,,,,,,,,,,,,,,,,top,,,,,,,,1948.676423042023,1949.0091097080149,1949.0092718750238,1954.2587974999915,1954.2652145419852,1955.5087969170418,1955.5106179580325,1956.5425277079921,1956.5440218750155,1957.176709417021,allgreen,FinalRedContrast,FinalGreenContrast,1957.177005042031,1959.3262021670234,1,052026gb,001,2026-05-20_10h16.29.999,priming,,2026.1.3,59.996294980563626,2026-05-20 10h16.30.307704 -0700,
GR_Incongruent_RedCue_GreenProbe_Bottom,GreenGaborBoth.png,RedGaborBoth.png,GreenGaborDisappearBottom.png,RedGaborBoth.png,Red.mp3,red,bottom,127,47,1,,,,1,47,127,21,1959.3420507500414,,,,,,,,,,,,,,,,bottom,,,,,,,,1959.3278376249946,1964.4258954999968,1964.4260617080145,1969.6754952500341,1969.6819878750248,1970.9254985830048,1970.9272295419942,1971.6593820829876,1971.6602279170183,1972.7430590830045,mostlygreen,FinalRedContrast,FinalGreenContrast,1972.7441099580028,1973.3601473750314,1,052026gb,001,2026-05-20_10h16.29.999,priming,,2026.1.3,59.996294980563626,2026-05-20 10h16.30.307704 -0700,
GR_Incongruent_GreenCue_RedProbe_Top,GreenGaborBoth.png,RedGaborBoth.png,GreenGaborBoth.png,RedGaborDisappearTop.png,Green.mp3,green,top,128,48,1,,,,1,48,128,62,1973.3753742920235,,,,,,,,,,,,,,,,top,,,,,,,,1973.3620608330239,1973.6424116670387,1973.642575167003,1978.8921623750357,1978.8986057500006,1980.1421051670332,1980.143569292035,1980.9759372079861,1980.977660167031,1981.959813583002,evensplit,FinalRedContrast,FinalGreenContrast,1981.9601754579926,1982.426496500033,2,052026gb,001,2026-05-20_10h16.29.999,priming,,2026.1.3,59.996294980563626,2026-05-20 10h16.30.307704 -0700,
GR_Congruent_RedCue_RedProbe_Bottom,GreenGaborBoth.png,RedGaborBoth.png,GreenGaborBoth.png,RedGaborDisappearBottom.png,Red.mp3,red,bottom,129,49,1,,,,1,49,129,1,1982.4421855830005,,,,,,,,,,,,,,,,bottom,,,,,,,,1982.428057208017,1982.9925631250371,1982.9927244579885,1988.242327791988,1988.248870874988,1989.4922905419953,1989.4936924580252,1990.1426282920293,1990.143988875032,1992.1768257920048,mostlygreen,FinalRedContrast,FinalGreenContrast,1992.177123292,1992.9430475420086,1,052026gb,001,2026-05-20_10h16.29.999,priming,,2026.1.3,59.996294980563626,2026-05-20 10h16.30.307704 -0700,
GR_Congruent_RedCue_RedProbe_Top,GreenGaborBoth.png,RedGaborBoth.png,GreenGaborBoth.png,RedGaborDisappearTop.png,Red.mp3,red,top,130,50,1,,,,1,50,130,64,1992.9587940420024,,,,,,,,,,,,,,,,top,,,,,,,,1992.9431569580338,1993.1925920000067,1993.1927530000103,1998.4422867079847,1998.4487374580349,1999.6921878749854,1999.6941972920322,2000.4592687920085,2000.4608997080359,2001.426413542009,mostlygreen,FinalRedContrast,FinalGreenContrast,2001.427499832993,2001.9604394169874,1,052026gb,001,2026-05-20_10h16.29.999,priming,,2026.1.3,59.996294980563626,2026-05-20 10h16.30.307704 -0700,
GR_Congruent_GreenCue_GreenProbe_Bottom,GreenGaborBoth.png,RedGaborBoth.png,GreenGaborDisappearBottom.png,RedGaborBoth.png,Green.mp3,green,bottom,131,51,1,,,,1,51,131,51,2001.9755818329868,,,,,,,,,,,,,,,,bottom,,,,,,,,2001.9622847079881,2002.2259439580375,2002.2261107920203,2007.4755625830148,2007.4821164580062,2008.7256292080274,2008.7273200000054,2009.5093520419905,2009.5107460420113,2011.4430827079923,mostlygreen,FinalRedContrast,FinalGreenContrast,2011.4438589999918,2012.193177749985,1,052026gb,001,2026-05-20_10h16.29.999,priming,,2026.1.3,59.996294980563626,2026-05-20 10h16.30.307704 -0700,
GR_Congruent_RedCue_RedProbe_Bottom,GreenGaborBoth.png,RedGaborBoth.png,GreenGaborBoth.png,RedGaborDisappearBottom.png,Red.mp3,red,bottom,132,52,1,,,,1,52,132,33,2012.2088713750127,,,,,,,,,,,,,,,,bottom,,,,,,,,2012.1947511670296,2012.5092645420227,2012.5094305420062,2017.758929500007,2017.765365875035,2019.0089784170268,2019.0104282500106,2019.6261226669885,2019.6276734999847,2020.3768933750107,mostlygreen,FinalRedContrast,FinalGreenContrast,2020.3771468750201,2020.8264341669856,1,052026gb,001,2026-05-20_10h16.29.999,priming,,2026.1.3,59.996294980563626,2026-05-20 10h16.30.307704 -0700,
GR_Incongruent_RedCue_GreenProbe_Top,GreenGaborBoth.png,RedGaborBoth.png,GreenGaborDisappearTop.png,RedGaborBoth.png,Red.mp3,red,top,133,53,1,,,,1,53,133,36,2020.8422434169916,,,,,,,,,,,,,,,,top,,,,,,,,2020.8265299170162,2021.2258918749867,2021.226058250002,2026.4756310830126,2026.4820787920034,2027.725697875023,2027.7274515830213,2028.5594645829988,2028.5611524580163,2029.4099258750211,mostlygreen,FinalRedContrast,FinalGreenContrast,2029.4103227080195,2029.7936017920147,1,052026gb,001,2026-05-20_10h16.29.999,priming,,2026.1.3,59.996294980563626,2026-05-20 10h16.30.307704 -0700,
GR_Incongruent_RedCue_GreenProbe_Bottom,GreenGaborBoth.png,RedGaborBoth.png,GreenGaborDisappearBottom.png,RedGaborBoth.png,Red.mp3,red,bottom,134,54,1,,,,1,54,134,53,2029.8089909580303,,,,,,,,,,,,,,,,bottom,,,,,,,,2029.7937046249863,2030.0593812080333,2030.0595450830297,2035.3090892080218,2035.315567624988,2036.5590665420168,2036.5603668750264,2037.1928101250087,2037.1940028750105,2039.1099554580287,evensplit,FinalRedContrast,FinalGreenContrast,2039.1106397080002,2039.9932531249942,1,052026gb,001,2026-05-20_10h16.29.999,priming,,2026.1.3,59.996294980563626,2026-05-20 10h16.30.307704 -0700,
GR_Incongruent_RedCue_GreenProbe_Top,GreenGaborBoth.png,RedGaborBoth.png,GreenGaborDisappearTop.png,RedGaborBoth.png,Red.mp3,red,top,135,55,1,,,,1,55,135,12,2040.0090127920266,,,,,,,,,,,,,,,,top,,,,,,,,2039.9933543330408,2040.409407875035,2040.4095695830183,2045.6590585419908,2045.6654615830048,2046.9092077080277,2046.911064792017,2047.5094645420322,2047.5115356669994,2048.2932317500236,mostlyred,FinalRedContrast,FinalGreenContrast,2048.2940558330156,2048.9599790420034,1,052026gb,001,2026-05-20_10h16.29.999,priming,,2026.1.3,59.996294980563626,2026-05-20 10h16.30.307704 -0700,
