label,LstartingStim,RstartingStim,LvisualStim,RvisualStim,audioCue,visualCue,probe_loc,thisN,thisTrialN,thisRepN,staircase.thisTrialN,staircase.stepSize,staircase.intensity,trials.thisRepN,trials.thisTrialN,trials.thisN,trials.thisIndex,thisRow.t,notes,piloting,stim offset,continue_resp.keys,continue_resp.rt,continue_resp.duration,fixation.started,fixation.stopped,greenContrast,redContrast,adjusted_contrast.started,adjusted_contrast.stopped,staircase_response.started,staircase_response.stopped,stair_response,probe_response,staircase.response,prevTrial,isRed,isReversal,cumReversal,contrastArray,contrastAverage,start_trial.started,start_trial.stopped,cue.started,cue.stopped,probe.started,probe.stopped,probe_response.started,probe_response.stopped,subjective_response.started,subjective_response.stopped,subj_response,RedContrast,GreenContrast,vividness_response.started,vividness_response.stopped,vivid_response,participant,session,date,expName,expVersion,psychopyVersion,frameRate,expStart,
,,,,,,,,,,,,,,,,,,,,False,0.34199999999999997,,,,,,,,,,,,,,,,,,,,,,,,,,,,,,,,,,,,,260508gh,001,2026-05-08_14h18.37.454,priming,,2026.1.3,59.89648402126582,2026-05-08 14h18.37.787876 -0700,
,,,,,,,,,,,,,,,,,,,,,,space,28.050910541000007,None,,,,,,,,,,,,,,,,,,,,,,,,,,,,,,,,,,260508gh,001,2026-05-08_14h18.37.454,priming,,2026.1.3,59.89648402126582,2026-05-08 14h18.37.787876 -0700,
,,,,,,,,,,,0,0.2,0.5,,,,,41.70242787500001,,,,,,,41.68440870899997,42.68585629200004,0.5,0.5,42.69538770899999,44.43605670900001,44.44138387500004,49.33813029199996,mostlyred,red,1,1000,1,0,0,[],0,,,,,,,,,,,,,,,,,260508gh,001,2026-05-08_14h18.37.454,priming,,2026.1.3,59.89648402126582,2026-05-08 14h18.37.787876 -0700,
,,,,,,,,,,,1,0.1,0.3,,,,,49.35254154200004,,,,,,,49.33848870899999,50.33595170900003,0.7,0.3,50.34078233399998,52.086032124999974,52.087750750000055,98.07054433400003,mostlygreen,green,0,1,0,1,1,[],0,,,,,,,,,,,,,,,,,260508gh,001,2026-05-08_14h18.37.454,priming,,2026.1.3,59.89648402126582,2026-05-08 14h18.37.787876 -0700,
,,,,,,,,,,,2,0.1,0.4,,,,,98.08610283400003,,,,,,,98.07124712500001,99.06956458399998,0.6,0.4,99.07674483400001,100.81950933400003,100.82152104199997,103.48688166700003,mostlyred,red,1,0,1,1,2,[],0,,,,,,,,,,,,,,,,,260508gh,001,2026-05-08_14h18.37.454,priming,,2026.1.3,59.89648402126582,2026-05-08 14h18.37.787876 -0700,
,,,,,,,,,,,3,0.05,0.30000000000000004,,,,,103.50277400000004,,,,,,,103.48713920900002,104.48617320899996,0.7,0.30000000000000004,104.490530584,106.23616870900003,106.23803137499999,107.50365191699996,mostlygreen,green,0,1,0,1,3,[],0,,,,,,,,,,,,,,,,,260508gh,001,2026-05-08_14h18.37.454,priming,,2026.1.3,59.89648402126582,2026-05-08 14h18.37.787876 -0700,
,,,,,,,,,,,4,0.05,0.35000000000000003,,,,,107.51944958399997,,,,,,,107.50403866700003,108.50284891700005,0.6499999999999999,0.35000000000000003,108.50719841700004,110.252848459,110.25483237499998,111.88687479199996,mostlyred,red,1,0,1,1,4,[],0,,,,,,,,,,,,,,,,,260508gh,001,2026-05-08_14h18.37.454,priming,,2026.1.3,59.89648402126582,2026-05-08 14h18.37.787876 -0700,
,,,,,,,,,,,5,0.025,0.30000000000000004,,,,,111.90276212499998,,,,,,,111.88714000000004,112.886163334,0.7,0.30000000000000004,112.88979629200003,114.63616170900002,114.63805345900005,115.88693566699999,mostlygreen,green,0,1,0,1,5,[],0,,,,,,,,,,,,,,,,,260508gh,001,2026-05-08_14h18.37.454,priming,,2026.1.3,59.89648402126582,2026-05-08 14h18.37.787876 -0700,
,,,,,,,,,,,6,0.025,0.32500000000000007,,,,,115.90275629200005,,,,,,,115.88721224999995,116.88623508399996,0.6749999999999999,0.32500000000000007,116.89025483399996,118.63620745900005,118.63809579199994,120.18691370900001,mostlygreen,green,0,0,0,0,5,[],0,,,,,,,,,,,,,,,,,260508gh,001,2026-05-08_14h18.37.454,priming,,2026.1.3,59.89648402126582,2026-05-08 14h18.37.787876 -0700,
,,,,,,,,,,,7,0.025,0.3500000000000001,,,,,120.20273895900004,,,,,,,120.18727983400004,121.18614108400004,0.6499999999999999,0.3500000000000001,121.19013912499997,122.93621204199997,122.93819141699998,123.82041720899997,mostlyred,red,1,0,1,1,6,[0.3500000000000001],0.3500000000000001,,,,,,,,,,,,,,,,,260508gh,001,2026-05-08_14h18.37.454,priming,,2026.1.3,59.89648402126582,2026-05-08 14h18.37.787876 -0700,
,,,,,,,,,,,8,0.025,0.32500000000000007,,,,,123.83621441699995,,,,,,,123.82072174999996,124.81963804199995,0.6749999999999999,0.32500000000000007,124.82320404200004,126.56967150000003,126.57144708400006,129.13703729199995,mostlygreen,green,0,1,0,1,7,"[0.3500000000000001, 0.32500000000000007]",0.3375000000000001,,,,,,,,,,,,,,,,,260508gh,001,2026-05-08_14h18.37.454,priming,,2026.1.3,59.89648402126582,2026-05-08 14h18.37.787876 -0700,
,,,,,,,,,,,9,0.025,0.3500000000000001,,,,,129.15290204200005,,,,,,,129.13732949999996,130.13629445900006,0.6499999999999999,0.3500000000000001,130.14073062499995,131.88628595900002,131.88807191700005,132.73705837499995,mostlyred,red,1,0,1,1,8,"[0.3500000000000001, 0.32500000000000007, 0.3500000000000001]",0.3416666666666668,,,,,,,,,,,,,,,,,260508gh,001,2026-05-08_14h18.37.454,priming,,2026.1.3,59.89648402126582,2026-05-08 14h18.37.787876 -0700,
,,,,,,,,,,,10,0.025,0.32500000000000007,,,,,132.752867917,,,,,,,132.73739795899996,133.73628962500004,0.6749999999999999,0.32500000000000007,133.740174584,135.48630054199998,135.48808654200002,137.02032604199997,mostlygreen,green,0,1,0,1,9,"[0.3500000000000001, 0.32500000000000007, 0.3500000000000001, 0.32500000000000007]",0.33750000000000013,,,,,,,,,,,,,,,,,260508gh,001,2026-05-08_14h18.37.454,priming,,2026.1.3,59.89648402126582,2026-05-08 14h18.37.787876 -0700,
,,,,,,,,,,,11,0.025,0.3500000000000001,,,,,137.03631462500005,,,,,,,137.02061658399998,138.01968029199998,0.6499999999999999,0.3500000000000001,138.02346954200004,139.7696145,139.77179483400005,141.20368595900004,mostlygreen,green,0,0,0,0,9,"[0.3500000000000001, 0.32500000000000007, 0.3500000000000001, 0.32500000000000007]",0.33750000000000013,,,,,,,,,,,,,,,,,260508gh,001,2026-05-08_14h18.37.454,priming,,2026.1.3,59.89648402126582,2026-05-08 14h18.37.787876 -0700,
,,,,,,,,,,,12,0.025,0.3750000000000001,,,,,141.219546209,,,,,,,141.20421620900004,142.20300870899996,0.6249999999999999,0.3750000000000001,142.206948667,143.95306337500006,143.95493887500004,145.03711654200004,mostlygreen,green,0,0,0,0,9,"[0.3500000000000001, 0.32500000000000007, 0.3500000000000001, 0.32500000000000007]",0.33750000000000013,,,,,,,,,,,,,,,,,260508gh,001,2026-05-08_14h18.37.454,priming,,2026.1.3,59.89648402126582,2026-05-08 14h18.37.787876 -0700,
,,,,,,,,,,,13,0.025,0.40000000000000013,,,,,145.052920417,,,,,,,145.037520459,146.036361209,0.5999999999999999,0.40000000000000013,146.04172833400003,147.78629358399996,147.78808883399995,148.437007709,mostlyred,red,1,0,1,1,10,"[0.3500000000000001, 0.32500000000000007, 0.3500000000000001, 0.32500000000000007, 0.40000000000000013]",0.35000000000000014,,,,,,,,,,,,,,,,,260508gh,001,2026-05-08_14h18.37.454,priming,,2026.1.3,59.89648402126582,2026-05-08 14h18.37.787876 -0700,
,,,,,,,,,,,14,0.025,0.3750000000000001,,,,,148.45288445899996,,,,,,,148.437258584,149.436302167,0.6249999999999999,0.3750000000000001,149.43989420900004,151.18635949999998,151.18843787499998,152.80384533400002,mostlyred,red,1,1,1,0,10,"[0.3500000000000001, 0.32500000000000007, 0.3500000000000001, 0.32500000000000007, 0.40000000000000013]",0.35000000000000014,,,,,,,,,,,,,,,,,260508gh,001,2026-05-08_14h18.37.454,priming,,2026.1.3,59.89648402126582,2026-05-08 14h18.37.787876 -0700,
,,,,,,,,,,,15,0.025,0.3500000000000001,,,,,152.819752334,,,,,,,152.804110959,153.803093084,0.6499999999999999,0.3500000000000001,153.80671174999998,155.55306441699997,155.55486241699998,156.07064270900003,mostlyred,red,1,1,1,0,10,"[0.3500000000000001, 0.32500000000000007, 0.3500000000000001, 0.32500000000000007, 0.40000000000000013]",0.35000000000000014,,,,,,,,,,,,,,,,,260508gh,001,2026-05-08_14h18.37.454,priming,,2026.1.3,59.89648402126582,2026-05-08 14h18.37.787876 -0700,
,,,,,,,,,,,16,0.025,0.32500000000000007,,,,,156.086443917,,,,,,,156.0708935,157.06984645900002,0.6749999999999999,0.32500000000000007,157.07401520899998,158.819756375,158.821548292,160.50452766700005,mostlygreen,green,0,1,0,1,11,"[0.3500000000000001, 0.32500000000000007, 0.3500000000000001, 0.32500000000000007, 0.40000000000000013, 0.32500000000000007]",0.34583333333333344,,,,,,,,,,,,,,,,,260508gh,001,2026-05-08_14h18.37.454,priming,,2026.1.3,59.89648402126582,2026-05-08 14h18.37.787876 -0700,
,,,,,,,,,,,17,0.025,0.3500000000000001,,,,,160.51975412499996,,,,,,,160.504898625,161.50313191700002,0.6499999999999999,0.3500000000000001,161.50761958400005,163.25313125000002,163.25497054200002,165.18714895899996,mostlyred,red,1,0,1,1,12,"[0.3500000000000001, 0.32500000000000007, 0.3500000000000001, 0.32500000000000007, 0.40000000000000013, 0.32500000000000007, 0.3500000000000001]",0.34642857142857153,,,,,,,,,,,,,,,,,260508gh,001,2026-05-08_14h18.37.454,priming,,2026.1.3,59.89648402126582,2026-05-08 14h18.37.787876 -0700,
,,,,,,,,,,,18,0.025,0.32500000000000007,,,,,165.20299524999996,,,,,,,165.18745479200004,166.18643225000005,0.6749999999999999,0.32500000000000007,166.19034970899997,167.93643133399996,167.93807687499998,168.97058937500003,mostlygreen,green,0,1,0,1,13,"[0.3500000000000001, 0.32500000000000007, 0.3500000000000001, 0.32500000000000007, 0.40000000000000013, 0.32500000000000007, 0.3500000000000001, 0.32500000000000007]",0.3437500000000001,,,,,,,,,,,,,,,,,260508gh,001,2026-05-08_14h18.37.454,priming,,2026.1.3,59.89648402126582,2026-05-08 14h18.37.787876 -0700,
,,,,,,,,,,,19,0.025,0.3500000000000001,,,,,168.98633829200003,,,,,,,168.97091491699996,169.969752792,0.6499999999999999,0.3500000000000001,169.97333712500006,171.719813917,171.721703542,173.904458792,mostlyred,red,1,0,1,1,14,"[0.3500000000000001, 0.32500000000000007, 0.3500000000000001, 0.32500000000000007, 0.40000000000000013, 0.32500000000000007, 0.3500000000000001, 0.32500000000000007, 0.3500000000000001]",0.34444444444444455,,,,,,,,,,,,,,,,,260508gh,001,2026-05-08_14h18.37.454,priming,,2026.1.3,59.89648402126582,2026-05-08 14h18.37.787876 -0700,
,,,,,,,,,,,20,0.025,0.32500000000000007,,,,,173.91968979199999,,,,,,,173.904861084,174.90308670900004,0.6749999999999999,0.32500000000000007,174.906714417,176.65311099999997,176.65497225000001,177.353774209,mostlygreen,green,0,1,0,1,15,"[0.3500000000000001, 0.32500000000000007, 0.3500000000000001, 0.32500000000000007, 0.40000000000000013, 0.32500000000000007, 0.3500000000000001, 0.32500000000000007, 0.3500000000000001, 0.32500000000000007]",0.34250000000000014,,,,,,,,,,,,,,,,,260508gh,001,2026-05-08_14h18.37.454,priming,,2026.1.3,59.89648402126582,2026-05-08 14h18.37.787876 -0700,
,,,,,,,,,,,21,0.025,0.3500000000000001,,,,,177.36966099999995,,,,,,,177.35409225,178.35312420900004,0.6499999999999999,0.3500000000000001,178.35883070900002,180.10309333399994,180.10501179200003,181.7539103339999,mostlyred,red,1,0,1,1,16,"[0.3500000000000001, 0.32500000000000007, 0.3500000000000001, 0.32500000000000007, 0.40000000000000013, 0.32500000000000007, 0.3500000000000001, 0.32500000000000007, 0.3500000000000001, 0.32500000000000007, 0.3500000000000001]",0.3431818181818183,,,,,,,,,,,,,,,,,260508gh,001,2026-05-08_14h18.37.454,priming,,2026.1.3,59.89648402126582,2026-05-08 14h18.37.787876 -0700,
,,,,,,,,,,,22,0.025,0.32500000000000007,,,,,181.7698711669999,,,,,,,181.75423016699995,182.75330737499996,0.6749999999999999,0.32500000000000007,182.75681970900007,184.5032917919999,184.50521154199998,186.9705675419999,mostlyred,red,1,1,1,0,16,"[0.3500000000000001, 0.32500000000000007, 0.3500000000000001, 0.32500000000000007, 0.40000000000000013, 0.32500000000000007, 0.3500000000000001, 0.32500000000000007, 0.3500000000000001, 0.32500000000000007, 0.3500000000000001]",0.3431818181818183,,,,,,,,,,,,,,,,,260508gh,001,2026-05-08_14h18.37.454,priming,,2026.1.3,59.89648402126582,2026-05-08 14h18.37.787876 -0700,
,,,,,,,,,,,23,0.025,0.30000000000000004,,,,,186.98651708399996,,,,,,,186.97082429199997,187.9698810000001,0.7,0.30000000000000004,187.973835334,189.7198656669999,189.7216258750001,191.02070854200008,mostlygreen,green,0,1,0,1,17,"[0.3500000000000001, 0.32500000000000007, 0.3500000000000001, 0.32500000000000007, 0.40000000000000013, 0.32500000000000007, 0.3500000000000001, 0.32500000000000007, 0.3500000000000001, 0.32500000000000007, 0.3500000000000001, 0.30000000000000004]",0.3395833333333334,,,,,,,,,,,,,,,,,260508gh,001,2026-05-08_14h18.37.454,priming,,2026.1.3,59.89648402126582,2026-05-08 14h18.37.787876 -0700,
,,,,,,,,,,,24,0.025,0.32500000000000007,,,,,191.036532792,,,,,,,191.0211700420001,192.01983070900008,0.6749999999999999,0.32500000000000007,192.0238290000001,193.76987529199994,193.77161254200007,194.85390412499999,mostlygreen,green,0,0,0,0,17,"[0.3500000000000001, 0.32500000000000007, 0.3500000000000001, 0.32500000000000007, 0.40000000000000013, 0.32500000000000007, 0.3500000000000001, 0.32500000000000007, 0.3500000000000001, 0.32500000000000007, 0.3500000000000001, 0.30000000000000004]",0.3395833333333334,,,,,,,,,,,,,,,,,260508gh,001,2026-05-08_14h18.37.454,priming,,2026.1.3,59.89648402126582,2026-05-08 14h18.37.787876 -0700,
,,,,,,,,,,,25,0.025,0.3500000000000001,,,,,194.869834084,,,,,,,194.85415658399995,195.85319304200004,0.6499999999999999,0.3500000000000001,195.856816375,197.60322224999993,197.604970042,199.57063941700005,mostlyred,red,1,0,1,1,18,"[0.3500000000000001, 0.32500000000000007, 0.3500000000000001, 0.32500000000000007, 0.40000000000000013, 0.32500000000000007, 0.3500000000000001, 0.32500000000000007, 0.3500000000000001, 0.32500000000000007, 0.3500000000000001, 0.30000000000000004, 0.3500000000000001]",0.34038461538461545,,,,,,,,,,,,,,,,,260508gh,001,2026-05-08_14h18.37.454,priming,,2026.1.3,59.89648402126582,2026-05-08 14h18.37.787876 -0700,
,,,,,,,,,,,26,0.025,0.32500000000000007,,,,,199.58648304199994,,,,,,,199.57090174999996,200.5698671250001,0.6749999999999999,0.32500000000000007,200.573383584,202.31991129200003,202.32164999999998,202.92070829200009,mostlyred,red,1,1,1,0,18,"[0.3500000000000001, 0.32500000000000007, 0.3500000000000001, 0.32500000000000007, 0.40000000000000013, 0.32500000000000007, 0.3500000000000001, 0.32500000000000007, 0.3500000000000001, 0.32500000000000007, 0.3500000000000001, 0.30000000000000004, 0.3500000000000001]",0.34038461538461545,,,,,,,,,,,,,,,,,260508gh,001,2026-05-08_14h18.37.454,priming,,2026.1.3,59.89648402126582,2026-05-08 14h18.37.787876 -0700,
,,,,,,,,,,,27,0.025,0.30000000000000004,,,,,202.93647791699993,,,,,,,202.920966625,203.92001012499998,0.7,0.30000000000000004,203.92369033400007,205.66997637499992,205.67182491699998,206.22064991700006,mostlygreen,green,0,1,0,1,19,"[0.3500000000000001, 0.32500000000000007, 0.3500000000000001, 0.32500000000000007, 0.40000000000000013, 0.32500000000000007, 0.3500000000000001, 0.32500000000000007, 0.3500000000000001, 0.32500000000000007, 0.3500000000000001, 0.30000000000000004, 0.3500000000000001, 0.30000000000000004]",0.3375,,,,,,,,,,,,,,,,,260508gh,001,2026-05-08_14h18.37.454,priming,,2026.1.3,59.89648402126582,2026-05-08 14h18.37.787876 -0700,
,,,,,,,,,,,28,0.025,0.32500000000000007,,,,,206.23645295900008,,,,,,,206.22108404199992,207.21987845899991,0.6749999999999999,0.32500000000000007,207.2238329999999,208.9699112500001,208.971766667,210.0373062089999,mostlyred,red,1,0,1,1,20,"[0.3500000000000001, 0.32500000000000007, 0.3500000000000001, 0.32500000000000007, 0.40000000000000013, 0.32500000000000007, 0.3500000000000001, 0.32500000000000007, 0.3500000000000001, 0.32500000000000007, 0.3500000000000001, 0.30000000000000004, 0.3500000000000001, 0.30000000000000004, 0.32500000000000007]",0.3366666666666667,,,,,,,,,,,,,,,,,260508gh,001,2026-05-08_14h18.37.454,priming,,2026.1.3,59.89648402126582,2026-05-08 14h18.37.787876 -0700,
,,,,,,,,,,,29,0.025,0.30000000000000004,,,,,210.05321420899998,,,,,,,210.0376117919999,211.03666762499995,0.7,0.30000000000000004,211.04062629199996,212.78670049999994,212.78858174999993,213.68737550000003,allgreen,green,0,1,0,1,21,"[0.32500000000000007, 0.3500000000000001, 0.32500000000000007, 0.40000000000000013, 0.32500000000000007, 0.3500000000000001, 0.32500000000000007, 0.3500000000000001, 0.32500000000000007, 0.3500000000000001, 0.30000000000000004, 0.3500000000000001, 0.30000000000000004, 0.32500000000000007, 0.30000000000000004]",0.33333333333333337,,,,,,,,,,,,,,,,,260508gh,001,2026-05-08_14h18.37.454,priming,,2026.1.3,59.89648402126582,2026-05-08 14h18.37.787876 -0700,
,,,,,,,,,,,30,0.025,0.32500000000000007,,,,,213.70334083399996,,,,,,,213.68775004199995,214.68673916699993,0.6749999999999999,0.32500000000000007,214.6904316670001,216.4367236669999,216.43854066699998,218.570966375,mostlygreen,green,0,0,0,0,21,"[0.32500000000000007, 0.3500000000000001, 0.32500000000000007, 0.40000000000000013, 0.32500000000000007, 0.3500000000000001, 0.32500000000000007, 0.3500000000000001, 0.32500000000000007, 0.3500000000000001, 0.30000000000000004, 0.3500000000000001, 0.30000000000000004, 0.32500000000000007, 0.30000000000000004]",0.33333333333333337,,,,,,,,,,,,,,,,,260508gh,001,2026-05-08_14h18.37.454,priming,,2026.1.3,59.89648402126582,2026-05-08 14h18.37.787876 -0700,
,,,,,,,,,,,31,0.025,0.3500000000000001,,,,,218.58670008399997,,,,,,,218.57126304199994,219.5700949589999,0.6499999999999999,0.3500000000000001,219.57405062500004,221.32003429200006,221.32184429200004,223.43746195899996,mostlyred,red,1,0,1,1,22,"[0.3500000000000001, 0.32500000000000007, 0.40000000000000013, 0.32500000000000007, 0.3500000000000001, 0.32500000000000007, 0.3500000000000001, 0.32500000000000007, 0.3500000000000001, 0.30000000000000004, 0.3500000000000001, 0.30000000000000004, 0.32500000000000007, 0.30000000000000004, 0.3500000000000001]",0.33500000000000013,,,,,,,,,,,,,,,,,260508gh,001,2026-05-08_14h18.37.454,priming,,2026.1.3,59.89648402126582,2026-05-08 14h18.37.787876 -0700,
,,,,,,,,,,,32,0.025,0.32500000000000007,,,,,223.453360375,,,,,,,223.43776637500002,224.4367175420001,0.6749999999999999,0.32500000000000007,224.440456875,226.1868082090001,226.18862658399996,227.52084616700006,mostlyred,red,1,1,1,0,22,"[0.3500000000000001, 0.32500000000000007, 0.40000000000000013, 0.32500000000000007, 0.3500000000000001, 0.32500000000000007, 0.3500000000000001, 0.32500000000000007, 0.3500000000000001, 0.30000000000000004, 0.3500000000000001, 0.30000000000000004, 0.32500000000000007, 0.30000000000000004, 0.3500000000000001]",0.33500000000000013,,,,,,,,,,,,,,,,,260508gh,001,2026-05-08_14h18.37.454,priming,,2026.1.3,59.89648402126582,2026-05-08 14h18.37.787876 -0700,
,,,,,,,,,,,33,0.025,0.30000000000000004,,,,,227.53663170900006,,,,,,,227.52135499999997,228.52007912500005,0.7,0.30000000000000004,228.5239110839999,230.2700860419999,230.2718691670001,232.13743120900006,mostlygreen,green,0,1,0,1,23,"[0.32500000000000007, 0.40000000000000013, 0.32500000000000007, 0.3500000000000001, 0.32500000000000007, 0.3500000000000001, 0.32500000000000007, 0.3500000000000001, 0.30000000000000004, 0.3500000000000001, 0.30000000000000004, 0.32500000000000007, 0.30000000000000004, 0.3500000000000001, 0.30000000000000004]",0.3316666666666667,,,,,,,,,,,,,,,,,260508gh,001,2026-05-08_14h18.37.454,priming,,2026.1.3,59.89648402126582,2026-05-08 14h18.37.787876 -0700,
,,,,,,,,,,,34,0.025,0.32500000000000007,,,,,232.1532746669999,,,,,,,232.137756084,233.136707,0.6749999999999999,0.32500000000000007,233.14025512499995,234.8867966670001,234.88907104199996,236.2707469589999,mostlyred,red,1,0,1,1,24,"[0.40000000000000013, 0.32500000000000007, 0.3500000000000001, 0.32500000000000007, 0.3500000000000001, 0.32500000000000007, 0.3500000000000001, 0.30000000000000004, 0.3500000000000001, 0.30000000000000004, 0.32500000000000007, 0.30000000000000004, 0.3500000000000001, 0.30000000000000004, 0.32500000000000007]",0.3316666666666668,,,,,,,,,,,,,,,,,260508gh,001,2026-05-08_14h18.37.454,priming,,2026.1.3,59.89648402126582,2026-05-08 14h18.37.787876 -0700,
,,,,,,,,,,,35,0.025,0.30000000000000004,,,,,236.28661962500007,,,,,,,236.27101579199996,237.27003187499997,0.7,0.30000000000000004,237.27534170899992,239.01999829199997,239.0218732919999,240.38758674999997,mostlygreen,green,0,1,0,1,25,"[0.32500000000000007, 0.3500000000000001, 0.32500000000000007, 0.3500000000000001, 0.32500000000000007, 0.3500000000000001, 0.30000000000000004, 0.3500000000000001, 0.30000000000000004, 0.32500000000000007, 0.30000000000000004, 0.3500000000000001, 0.30000000000000004, 0.32500000000000007, 0.30000000000000004]",0.32500000000000007,,,,,,,,,,,,,,,,,260508gh,001,2026-05-08_14h18.37.454,priming,,2026.1.3,59.89648402126582,2026-05-08 14h18.37.787876 -0700,
,,,,,,,,,,,36,0.025,0.32500000000000007,,,,,240.40338154199992,,,,,,,240.38793687500004,241.3869001669999,0.6749999999999999,0.32500000000000007,241.39073762500004,243.1368195839999,243.138657417,243.73755137499995,mostlyred,red,1,0,1,1,26,"[0.3500000000000001, 0.32500000000000007, 0.3500000000000001, 0.32500000000000007, 0.3500000000000001, 0.30000000000000004, 0.3500000000000001, 0.30000000000000004, 0.32500000000000007, 0.30000000000000004, 0.3500000000000001, 0.30000000000000004, 0.32500000000000007, 0.30000000000000004, 0.32500000000000007]",0.3250000000000001,,,,,,,,,,,,,,,,,260508gh,001,2026-05-08_14h18.37.454,priming,,2026.1.3,59.89648402126582,2026-05-08 14h18.37.787876 -0700,
,,,,,,,,,,,37,0.025,0.30000000000000004,,,,,243.75343866700007,,,,,,,243.73786770899994,244.73684483399995,0.7,0.30000000000000004,244.74045624999997,246.486871792,246.48855891699998,248.6875564589999,mostlygreen,green,0,1,0,1,27,"[0.32500000000000007, 0.3500000000000001, 0.32500000000000007, 0.3500000000000001, 0.30000000000000004, 0.3500000000000001, 0.30000000000000004, 0.32500000000000007, 0.30000000000000004, 0.3500000000000001, 0.30000000000000004, 0.32500000000000007, 0.30000000000000004, 0.32500000000000007, 0.30000000000000004]",0.3216666666666667,,,,,,,,,,,,,,,,,260508gh,001,2026-05-08_14h18.37.454,priming,,2026.1.3,59.89648402126582,2026-05-08 14h18.37.787876 -0700,
,,,,,,,,,,,38,0.025,0.32500000000000007,,,,,248.70342816699997,,,,,,,248.6878244589999,249.6868005,0.6749999999999999,0.32500000000000007,249.69194316699998,251.43681004200005,251.4385168340001,253.52084270900002,mostlyred,red,1,0,1,1,28,"[0.3500000000000001, 0.32500000000000007, 0.3500000000000001, 0.30000000000000004, 0.3500000000000001, 0.30000000000000004, 0.32500000000000007, 0.30000000000000004, 0.3500000000000001, 0.30000000000000004, 0.32500000000000007, 0.30000000000000004, 0.32500000000000007, 0.30000000000000004, 0.32500000000000007]",0.3216666666666667,,,,,,,,,,,,,,,,,260508gh,001,2026-05-08_14h18.37.454,priming,,2026.1.3,59.89648402126582,2026-05-08 14h18.37.787876 -0700,
,,,,,,,,,,,39,0.025,0.30000000000000004,,,,,253.5367319589999,,,,,,,253.5211794170001,254.52010499999994,0.7,0.30000000000000004,254.5237296670001,256.27016012499996,256.2720022919999,256.87083808399996,mostlygreen,green,0,1,0,1,29,"[0.32500000000000007, 0.3500000000000001, 0.30000000000000004, 0.3500000000000001, 0.30000000000000004, 0.32500000000000007, 0.30000000000000004, 0.3500000000000001, 0.30000000000000004, 0.32500000000000007, 0.30000000000000004, 0.32500000000000007, 0.30000000000000004, 0.32500000000000007, 0.30000000000000004]",0.31833333333333336,,,,,,,,,,,,,,,,,260508gh,001,2026-05-08_14h18.37.454,priming,,2026.1.3,59.89648402126582,2026-05-08 14h18.37.787876 -0700,
,,,,,,,,,,,,,,,,,,,,,,space,88.90811462500005,None,,,,,,,,,,,,,,,,,,,,,,,,,,,,,,,,,,260508gh,001,2026-05-08_14h18.37.454,priming,,2026.1.3,59.89648402126582,2026-05-08 14h18.37.787876 -0700,
GR_Congruent_RedCue_RedProbe_Bottom,GreenGaborBoth.png,RedGaborBoth.png,GreenGaborBoth.png,RedGaborDisappearBottom.png,Red.mp3,red,bottom,0,0,0,,,,0,0,0,57,345.9202417089999,,,,,,,,,,,,,,,,bottom,,,,,,,,345.9066920419999,354.85423404200003,354.8544517920001,360.10386733400003,360.11948500000005,361.3706646249999,361.37243654199995,364.971188417,364.9730874999999,369.521632542,mostlygreen,FinalRedContrast,FinalGreenContrast,369.52254241699995,373.954907792,3,260508gh,001,2026-05-08_14h18.37.454,priming,,2026.1.3,59.89648402126582,2026-05-08 14h18.37.787876 -0700,
GR_Congruent_GreenCue_GreenProbe_Bottom,GreenGaborBoth.png,RedGaborBoth.png,GreenGaborDisappearBottom.png,RedGaborBoth.png,Green.mp3,green,bottom,1,1,0,,,,0,1,1,59,373.970397834,,,,,,,,,,,,,,,,bottom,,,,,,,,373.96439729199994,376.7543784999999,376.75455875,382.00405387500007,382.01451587500003,383.25400112499995,383.2558037089999,384.90444112500006,384.905825209,388.40483525,allgreen,FinalRedContrast,FinalGreenContrast,388.406224209,394.2716354999999,3,260508gh,001,2026-05-08_14h18.37.454,priming,,2026.1.3,59.89648402126582,2026-05-08 14h18.37.787876 -0700,
GR_Congruent_GreenCue_GreenProbe_Top,GreenGaborBoth.png,RedGaborBoth.png,GreenGaborDisappearTop.png,RedGaborBoth.png,Green.mp3,green,top,2,2,0,,,,0,2,2,42,394.2874337500001,,,,,,,,,,,,,,,,top,,,,,,,,394.27197287499996,396.854424625,396.85462470899995,402.104098875,402.11574024999993,403.35412929200004,403.355867334,404.47120845899997,404.472798917,406.6383212920001,allgreen,FinalRedContrast,FinalGreenContrast,406.63965837500007,408.8382929999999,3,260508gh,001,2026-05-08_14h18.37.454,priming,,2026.1.3,59.89648402126582,2026-05-08 14h18.37.787876 -0700,
GG_non_riv_catch_GreenCue_GreenProbe_Bottom,GreenGaborBoth.png,Blank.png,GreenGaborDisappearBottom.png,Blank.png,Green.mp3,green,bottom,3,3,0,,,,0,3,3,79,408.8540288749999,,,,,,,,,,,,,,,,bottom,,,,,,,,408.8384333339999,410.87111908400004,410.871304375,416.121002834,416.13359412500006,417.37075145899996,417.3747823340001,417.98959179199994,417.9898615000001,419.1383366670001,allgreen,FinalRedContrast,FinalGreenContrast,419.13963987499994,420.6550335840001,4,260508gh,001,2026-05-08_14h18.37.454,priming,,2026.1.3,59.89648402126582,2026-05-08 14h18.37.787876 -0700,
GR_Incongruent_RedCue_GreenProbe_Top,GreenGaborBoth.png,RedGaborBoth.png,GreenGaborDisappearTop.png,RedGaborBoth.png,Red.mp3,red,top,4,4,0,,,,0,4,4,60,420.67081124999993,,,,,,,,,,,,,,,,top,,,,,,,,420.657670917,425.20459837500005,425.2047832090001,430.45435929200005,430.465289459,431.7042513340001,431.7070546670001,432.47151195899994,432.47225083399996,436.0217597919999,mostlygreen,FinalRedContrast,FinalGreenContrast,436.02312837500006,438.55508133399996,3,260508gh,001,2026-05-08_14h18.37.454,priming,,2026.1.3,59.89648402126582,2026-05-08 14h18.37.787876 -0700,
GG_non_riv_catch_RedCue_GreenProbe_Top,GreenGaborBoth.png,Blank.png,GreenGaborDisappearTop.png,Blank.png,Red.mp3,red,top,5,5,0,,,,0,5,5,76,438.57083254199995,,,,,,,,,,,,,,,,top,,,,,,,,438.5553267920001,440.72130170899993,440.72147329200004,445.9709953339999,445.9780912089999,447.2209463749999,447.222755334,447.7881926250001,447.7889168339999,448.77178041700006,allgreen,FinalRedContrast,FinalGreenContrast,448.7730344170001,450.155124042,3,260508gh,001,2026-05-08_14h18.37.454,priming,,2026.1.3,59.89648402126582,2026-05-08 14h18.37.787876 -0700,
GR_Incongruent_GreenCue_RedProbe_Top,GreenGaborBoth.png,RedGaborBoth.png,GreenGaborBoth.png,RedGaborDisappearTop.png,Green.mp3,green,top,6,6,0,,,,0,6,6,38,450.1708581669999,,,,,,,,,,,,,,,,top,,,,,,,,450.15866874999995,451.63793333399997,451.63812133399995,456.8877840839999,456.89868016699995,458.13770391700007,458.13938229200005,459.4214921250001,459.42293770899994,461.20531504200005,evensplit,FinalRedContrast,FinalGreenContrast,461.2060862919999,462.57194825,3,260508gh,001,2026-05-08_14h18.37.454,priming,,2026.1.3,59.89648402126582,2026-05-08 14h18.37.787876 -0700,
GR_Incongruent_RedCue_GreenProbe_Top,GreenGaborBoth.png,RedGaborBoth.png,GreenGaborDisappearTop.png,RedGaborBoth.png,Red.mp3,red,top,7,7,0,,,,0,7,7,20,462.58766008400005,,,,,,,,,,,,,,,,top,,,,,,,,462.5740918749999,465.037986167,465.03816070899995,470.2880973340001,470.2987696250001,471.53771641700007,471.539371209,473.60487616700004,473.60615195899993,474.6552426249999,evensplit,FinalRedContrast,FinalGreenContrast,474.6557792919999,477.355201125,3,260508gh,001,2026-05-08_14h18.37.454,priming,,2026.1.3,59.89648402126582,2026-05-08 14h18.37.787876 -0700,
GR_Congruent_RedCue_RedProbe_Top,GreenGaborBoth.png,RedGaborBoth.png,GreenGaborBoth.png,RedGaborDisappearTop.png,Red.mp3,red,top,8,8,0,,,,0,8,8,32,477.3709748749999,,,,,,,,,,,,,,,,top,,,,,,,,477.35546624999995,478.3547636249999,478.35495316699996,483.604394459,483.6146150000001,484.8543888339999,484.856329417,486.1881977500001,486.19011720900005,487.8554123340001,evensplit,FinalRedContrast,FinalGreenContrast,487.85668729199995,489.00547199999994,3,260508gh,001,2026-05-08_14h18.37.454,priming,,2026.1.3,59.89648402126582,2026-05-08 14h18.37.787876 -0700,
RR_non_riv_catch_GreenCue_RedProbe_Bottom,Blank.png,RedGaborBoth.png,Blank.png,RedGaborDisappearBottom.png,Green.mp3,green,bottom,9,9,0,,,,0,9,9,75,489.0211230000001,,,,,,,,,,,,,,,,bottom,,,,,,,,489.00860354200006,490.7214977499999,490.721674042,495.9712157089999,495.97878379199994,497.221175584,497.2230881669999,497.8382841250001,497.8399189170001,499.2220485419999,allred,FinalRedContrast,FinalGreenContrast,499.2229639589999,501.9720470000001,3,260508gh,001,2026-05-08_14h18.37.454,priming,,2026.1.3,59.89648402126582,2026-05-08 14h18.37.787876 -0700,
GR_Incongruent_GreenCue_RedProbe_Top,GreenGaborBoth.png,RedGaborBoth.png,GreenGaborBoth.png,RedGaborDisappearTop.png,Green.mp3,green,top,10,10,0,,,,0,10,10,14,501.98779683400005,,,,,,,,,,,,,,,,top,,,,,,,,501.97223804199996,504.38812700000005,504.3882990840001,509.6378109169999,509.6464830420001,510.8879375,510.8901274589999,511.4549451250001,511.45636954200006,512.521978875,evensplit,FinalRedContrast,FinalGreenContrast,512.5228961250001,513.355373667,3,260508gh,001,2026-05-08_14h18.37.454,priming,,2026.1.3,59.89648402126582,2026-05-08 14h18.37.787876 -0700,
GR_Incongruent_GreenCue_RedProbe_Top,GreenGaborBoth.png,RedGaborBoth.png,GreenGaborBoth.png,RedGaborDisappearTop.png,Green.mp3,green,top,11,11,0,,,,0,11,11,30,513.3710978749999,,,,,,,,,,,,,,,,top,,,,,,,,513.3554875420001,514.1216122090001,514.121789875,519.371399042,519.3801892089999,520.6213274999999,520.623294917,522.438920084,522.4396365839999,523.8891507090001,mostlygreen,FinalRedContrast,FinalGreenContrast,523.8901300419999,525.2054872089999,3,260508gh,001,2026-05-08_14h18.37.454,priming,,2026.1.3,59.89648402126582,2026-05-08 14h18.37.787876 -0700,
GR_Congruent_RedCue_RedProbe_Bottom,GreenGaborBoth.png,RedGaborBoth.png,GreenGaborBoth.png,RedGaborDisappearBottom.png,Red.mp3,red,bottom,12,12,0,,,,0,12,12,17,525.221248084,,,,,,,,,,,,,,,,bottom,,,,,,,,525.2082508750001,526.4382675,526.438457542,531.688192125,531.699581042,532.937946375,532.9398848750001,534.7718523750001,534.7733017090001,537.27242975,mostlyred,FinalRedContrast,FinalGreenContrast,537.2732279170001,538.472422959,4,260508gh,001,2026-05-08_14h18.37.454,priming,,2026.1.3,59.89648402126582,2026-05-08 14h18.37.787876 -0700,
GR_Congruent_GreenCue_GreenProbe_Bottom,GreenGaborBoth.png,RedGaborBoth.png,GreenGaborDisappearBottom.png,RedGaborBoth.png,Green.mp3,green,bottom,13,13,0,,,,0,13,13,19,538.487910959,,,,,,,,,,,,,,,,bottom,,,,,,,,538.475366709,539.6716715839999,539.6718448339999,544.921355459,544.93050725,546.171396459,546.1732625000001,548.0050895840001,548.0062268749999,548.905613042,evensplit,FinalRedContrast,FinalGreenContrast,548.906116709,551.8726962090001,3,260508gh,001,2026-05-08_14h18.37.454,priming,,2026.1.3,59.89648402126582,2026-05-08 14h18.37.787876 -0700,
GR_Congruent_RedCue_RedProbe_Top,GreenGaborBoth.png,RedGaborBoth.png,GreenGaborBoth.png,RedGaborDisappearTop.png,Red.mp3,red,top,14,14,0,,,,0,14,14,0,551.8880634589999,,,,,,,,,,,,,,,,top,,,,,,,,551.874723084,555.388550084,555.3889371250001,560.6381043340001,560.648382875,561.888087167,561.8902588340001,563.2384982919999,563.2401458749999,564.2223250420001,mostlyred,FinalRedContrast,FinalGreenContrast,564.223598084,566.00559225,3,260508gh,001,2026-05-08_14h18.37.454,priming,,2026.1.3,59.89648402126582,2026-05-08 14h18.37.787876 -0700,
GR_Incongruent_RedCue_GreenProbe_Bottom,GreenGaborBoth.png,RedGaborBoth.png,GreenGaborDisappearBottom.png,RedGaborBoth.png,Red.mp3,red,bottom,15,15,0,,,,0,15,15,61,566.0213398340001,,,,,,,,,,,,,,,,bottom,,,,,,,,566.0062105000001,567.6384031670001,567.638573584,572.8881318750001,572.8986901249999,574.138168542,574.1399905,575.055340125,575.0570575,576.6559672919999,evensplit,FinalRedContrast,FinalGreenContrast,576.6562366249999,578.188933084,3,260508gh,001,2026-05-08_14h18.37.454,priming,,2026.1.3,59.89648402126582,2026-05-08 14h18.37.787876 -0700,
GR_Congruent_GreenCue_GreenProbe_Top,GreenGaborBoth.png,RedGaborBoth.png,GreenGaborDisappearTop.png,RedGaborBoth.png,Green.mp3,green,top,16,16,0,,,,0,16,16,34,578.2047417499999,,,,,,,,,,,,,,,,top,,,,,,,,578.191724167,578.888429,578.8886041669999,584.138214,584.14788225,585.3882474999999,585.3899653340001,585.955431625,585.95661725,587.4224310840001,allgreen,FinalRedContrast,FinalGreenContrast,587.423792042,589.139140959,3,260508gh,001,2026-05-08_14h18.37.454,priming,,2026.1.3,59.89648402126582,2026-05-08 14h18.37.787876 -0700,
GR_Incongruent_GreenCue_RedProbe_Top,GreenGaborBoth.png,RedGaborBoth.png,GreenGaborBoth.png,RedGaborDisappearTop.png,Green.mp3,green,top,17,17,0,,,,0,17,17,22,589.154885,,,,,,,,,,,,,,,,top,,,,,,,,589.139252459,592.6391393749999,592.6393522499999,597.888255917,597.8967839170001,599.1382145839999,599.1402374999999,602.072805417,602.073403584,605.1891724169999,mostlygreen,FinalRedContrast,FinalGreenContrast,605.1897995,605.9557599999999,3,260508gh,001,2026-05-08_14h18.37.454,priming,,2026.1.3,59.89648402126582,2026-05-08 14h18.37.787876 -0700,
GR_Incongruent_GreenCue_RedProbe_Top,GreenGaborBoth.png,RedGaborBoth.png,GreenGaborBoth.png,RedGaborDisappearTop.png,Green.mp3,green,top,18,18,0,,,,0,18,18,62,605.9714856669999,,,,,,,,,,,,,,,,top,,,,,,,,605.956015917,608.78854175,608.7887228339999,614.038226792,614.04821875,615.288203667,615.289996292,615.9055274589999,615.907045709,617.1891850840001,allgreen,FinalRedContrast,FinalGreenContrast,617.190429875,618.8059120839999,3,260508gh,001,2026-05-08_14h18.37.454,priming,,2026.1.3,59.89648402126582,2026-05-08 14h18.37.787876 -0700,
GR_Congruent_RedCue_RedProbe_Top,GreenGaborBoth.png,RedGaborBoth.png,GreenGaborBoth.png,RedGaborDisappearTop.png,Red.mp3,red,top,19,19,0,,,,0,19,19,48,618.8216014999999,,,,,,,,,,,,,,,,top,,,,,,,,618.8084293339999,622.072864959,622.073152417,627.3217593749999,627.3325939590001,628.5716807919999,628.573511709,629.822154542,629.82469925,630.3725416670001,evensplit,FinalRedContrast,FinalGreenContrast,630.373340834,632.1891925000001,3,260508gh,001,2026-05-08_14h18.37.454,priming,,2026.1.3,59.89648402126582,2026-05-08 14h18.37.787876 -0700,
GR_Incongruent_RedCue_GreenProbe_Bottom,GreenGaborBoth.png,RedGaborBoth.png,GreenGaborDisappearBottom.png,RedGaborBoth.png,Red.mp3,red,bottom,20,20,0,,,,0,20,20,13,632.2049705420001,,,,,,,,,,,,,,,,bottom,,,,,,,,632.189367542,641.3387635,641.339025959,646.588505,646.59890775,647.838729084,647.839892459,648.6728514170001,648.673412834,650.1726890000001,mostlyred,FinalRedContrast,FinalGreenContrast,650.1739673339999,651.3561182919999,3,260508gh,001,2026-05-08_14h18.37.454,priming,,2026.1.3,59.89648402126582,2026-05-08 14h18.37.787876 -0700,
GR_Congruent_GreenCue_GreenProbe_Top,GreenGaborBoth.png,RedGaborBoth.png,GreenGaborDisappearTop.png,RedGaborBoth.png,Green.mp3,green,top,21,21,0,,,,0,21,21,50,651.371730792,,,,,,,,,,,,,,,,top,,,,,,,,651.3592252090001,653.3388719999999,653.339056417,658.588582875,658.5975052499999,659.838478625,659.8407974590001,662.2889160840001,662.290713084,663.672667834,mostlygreen,FinalRedContrast,FinalGreenContrast,663.6739134170001,664.2728094590001,3,260508gh,001,2026-05-08_14h18.37.454,priming,,2026.1.3,59.89648402126582,2026-05-08 14h18.37.787876 -0700,
GR_Congruent_GreenCue_GreenProbe_Top,GreenGaborBoth.png,RedGaborBoth.png,GreenGaborDisappearTop.png,RedGaborBoth.png,Green.mp3,green,top,22,22,0,,,,0,22,22,26,664.2884419589999,,,,,,,,,,,,,,,,top,,,,,,,,664.2729485420001,665.63882125,665.639010584,670.8884569590001,670.8965877920001,672.138540625,672.140231792,673.039007625,673.040295834,673.87270725,allgreen,FinalRedContrast,FinalGreenContrast,673.873353625,674.8392935,3,260508gh,001,2026-05-08_14h18.37.454,priming,,2026.1.3,59.89648402126582,2026-05-08 14h18.37.787876 -0700,
GR_Incongruent_GreenCue_RedProbe_Bottom,GreenGaborBoth.png,RedGaborBoth.png,GreenGaborBoth.png,RedGaborDisappearBottom.png,Green.mp3,green,bottom,23,23,0,,,,0,23,23,47,674.855083709,,,,,,,,,,,,,,,,bottom,,,,,,,,674.839412334,676.6221932919999,676.6223732499999,681.8718277090001,681.882032917,683.122281375,683.1246508339999,684.4057106670001,684.4074897500001,685.6727529589999,mostlyred,FinalRedContrast,FinalGreenContrast,685.6735729589999,686.722784167,3,260508gh,001,2026-05-08_14h18.37.454,priming,,2026.1.3,59.89648402126582,2026-05-08 14h18.37.787876 -0700,
GR_Incongruent_RedCue_GreenProbe_Top,GreenGaborBoth.png,RedGaborBoth.png,GreenGaborDisappearTop.png,RedGaborBoth.png,Red.mp3,red,top,24,24,0,,,,0,24,24,28,686.7385506249999,,,,,,,,,,,,,,,,top,,,,,,,,686.726440459,689.105686625,689.105884875,694.355388667,694.366294542,695.605311875,695.60694475,696.222490667,696.2241345000001,697.222763917,mostlygreen,FinalRedContrast,FinalGreenContrast,697.224171,698.3395159170001,3,260508gh,001,2026-05-08_14h18.37.454,priming,,2026.1.3,59.89648402126582,2026-05-08 14h18.37.787876 -0700,
GR_Incongruent_RedCue_GreenProbe_Top,GreenGaborBoth.png,RedGaborBoth.png,GreenGaborDisappearTop.png,RedGaborBoth.png,Red.mp3,red,top,25,25,0,,,,0,25,25,44,698.3554660420001,,,,,,,,,,,,,,,,top,,,,,,,,698.339680125,699.7056320840001,699.7058061670001,704.95530875,704.9662312920001,706.205375375,706.2071610419999,706.9558384170001,706.9575222919999,707.9394497500001,allgreen,FinalRedContrast,FinalGreenContrast,707.9407549169999,709.506126209,3,260508gh,001,2026-05-08_14h18.37.454,priming,,2026.1.3,59.89648402126582,2026-05-08 14h18.37.787876 -0700,
GR_Incongruent_RedCue_GreenProbe_Bottom,GreenGaborBoth.png,RedGaborBoth.png,GreenGaborDisappearBottom.png,RedGaborBoth.png,Red.mp3,red,bottom,26,26,0,,,,0,26,26,21,709.521861417,,,,,,,,,,,,,,,,bottom,,,,,,,,709.5063011670001,711.1389386249999,711.1391012089999,716.388721875,716.3971789589999,717.638775,717.6410433750001,719.2392205,719.239999709,720.089616917,allgreen,FinalRedContrast,FinalGreenContrast,720.0908404170001,720.856282375,3,260508gh,001,2026-05-08_14h18.37.454,priming,,2026.1.3,59.89648402126582,2026-05-08 14h18.37.787876 -0700,
GR_Incongruent_RedCue_GreenProbe_Bottom,GreenGaborBoth.png,RedGaborBoth.png,GreenGaborDisappearBottom.png,RedGaborBoth.png,Red.mp3,red,bottom,27,27,0,,,,0,27,27,45,720.872002042,,,,,,,,,,,,,,,,bottom,,,,,,,,720.856443625,723.0723906249999,723.0725555,728.3220935420001,728.3308592499999,729.5721445,729.573930959,730.8058166249999,730.807609334,731.722938792,evensplit,FinalRedContrast,FinalGreenContrast,731.7240514169999,733.389662917,3,260508gh,001,2026-05-08_14h18.37.454,priming,,2026.1.3,59.89648402126582,2026-05-08 14h18.37.787876 -0700,
GR_Incongruent_GreenCue_RedProbe_Top,GreenGaborBoth.png,RedGaborBoth.png,GreenGaborBoth.png,RedGaborDisappearTop.png,Green.mp3,green,top,28,28,0,,,,0,28,28,70,733.4053446250001,,,,,,,,,,,,,,,,top,,,,,,,,733.392616125,735.589127292,735.589292709,740.838787459,740.8473512090001,742.088752542,742.0904877920001,744.089124042,744.090541959,745.2229747499999,evensplit,FinalRedContrast,FinalGreenContrast,745.2243422089999,746.039564625,3,260508gh,001,2026-05-08_14h18.37.454,priming,,2026.1.3,59.89648402126582,2026-05-08 14h18.37.787876 -0700,
GR_Congruent_GreenCue_GreenProbe_Bottom,GreenGaborBoth.png,RedGaborBoth.png,GreenGaborDisappearBottom.png,RedGaborBoth.png,Green.mp3,green,bottom,29,29,0,,,,0,29,29,67,746.0553288340001,,,,,,,,,,,,,,,,bottom,,,,,,,,746.0396755840001,748.3390277499999,748.3392156250001,753.5889436250001,753.5975407919999,754.83895275,754.840786292,755.4392745419999,755.4405793340001,756.3730334999999,allgreen,FinalRedContrast,FinalGreenContrast,756.374235917,759.123107667,3,260508gh,001,2026-05-08_14h18.37.454,priming,,2026.1.3,59.89648402126582,2026-05-08 14h18.37.787876 -0700,
GR_Congruent_GreenCue_GreenProbe_Bottom,GreenGaborBoth.png,RedGaborBoth.png,GreenGaborDisappearBottom.png,RedGaborBoth.png,Green.mp3,green,bottom,30,30,0,,,,0,30,30,51,759.138783125,,,,,,,,,,,,,,,,bottom,,,,,,,,759.123710959,768.6559415840001,768.656134125,773.905531,773.9164079169999,775.1555736250001,775.1577839170001,775.67267375,775.6744185839999,776.273111459,allgreen,FinalRedContrast,FinalGreenContrast,776.273553459,777.873039792,3,260508gh,001,2026-05-08_14h18.37.454,priming,,2026.1.3,59.89648402126582,2026-05-08 14h18.37.787876 -0700,
GR_Incongruent_RedCue_GreenProbe_Top,GreenGaborBoth.png,RedGaborBoth.png,GreenGaborDisappearTop.png,RedGaborBoth.png,Red.mp3,red,top,31,31,0,,,,0,31,31,52,777.888835334,,,,,,,,,,,,,,,,top,,,,,,,,777.8756334999999,779.455892542,779.45607125,784.705723167,784.714123417,785.9556817920001,785.957427792,787.089502375,787.090967667,788.1565764589999,allgreen,FinalRedContrast,FinalGreenContrast,788.157604292,788.773230167,3,260508gh,001,2026-05-08_14h18.37.454,priming,,2026.1.3,59.89648402126582,2026-05-08 14h18.37.787876 -0700,
GR_Incongruent_GreenCue_RedProbe_Bottom,GreenGaborBoth.png,RedGaborBoth.png,GreenGaborBoth.png,RedGaborDisappearBottom.png,Green.mp3,green,bottom,32,32,0,,,,0,32,32,7,788.7889476250001,,,,,,,,,,,,,,,,bottom,,,,,,,,788.7767984999999,791.35598625,791.3561759170001,796.60575975,796.616976417,797.8556884999999,797.857651167,799.172789417,799.173759375,801.123175625,mostlygreen,FinalRedContrast,FinalGreenContrast,801.124544959,802.506511917,2,260508gh,001,2026-05-08_14h18.37.454,priming,,2026.1.3,59.89648402126582,2026-05-08 14h18.37.787876 -0700,
GR_Incongruent_GreenCue_RedProbe_Top,GreenGaborBoth.png,RedGaborBoth.png,GreenGaborBoth.png,RedGaborDisappearTop.png,Green.mp3,green,top,33,33,0,,,,0,33,33,54,802.5222541669999,,,,,,,,,,,,,,,,top,,,,,,,,802.5071670839999,803.689331209,803.689501,808.939028209,808.9478365000001,810.189024334,810.1909979589999,810.823724709,810.824291584,813.123128584,allgreen,FinalRedContrast,FinalGreenContrast,813.1241760839999,814.3231859169999,4,260508gh,001,2026-05-08_14h18.37.454,priming,,2026.1.3,59.89648402126582,2026-05-08 14h18.37.787876 -0700,
GR_Incongruent_GreenCue_RedProbe_Bottom,GreenGaborBoth.png,RedGaborBoth.png,GreenGaborBoth.png,RedGaborDisappearBottom.png,Green.mp3,green,bottom,34,34,0,,,,0,34,34,55,814.338919125,,,,,,,,,,,,,,,,bottom,,,,,,,,814.3233445,817.8894715,817.8896417919999,823.139221667,823.1481172919999,824.3892124170001,824.3909555419999,825.423793625,825.4242762499999,827.489987459,mostlygreen,FinalRedContrast,FinalGreenContrast,827.4908252500001,828.923447,3,260508gh,001,2026-05-08_14h18.37.454,priming,,2026.1.3,59.89648402126582,2026-05-08 14h18.37.787876 -0700,
GR_Congruent_RedCue_RedProbe_Top,GreenGaborBoth.png,RedGaborBoth.png,GreenGaborBoth.png,RedGaborDisappearTop.png,Red.mp3,red,top,35,35,0,,,,0,35,35,56,828.9390804999999,,,,,,,,,,,,,,,,top,,,,,,,,828.926062417,830.7061432090001,830.706310125,835.955922584,835.964642625,837.20580375,837.20768925,838.156275042,838.157677584,839.2733294169999,mostlygreen,FinalRedContrast,FinalGreenContrast,839.274156375,840.29004675,1,260508gh,001,2026-05-08_14h18.37.454,priming,,2026.1.3,59.89648402126582,2026-05-08 14h18.37.787876 -0700,
GR_Incongruent_GreenCue_RedProbe_Bottom,GreenGaborBoth.png,RedGaborBoth.png,GreenGaborBoth.png,RedGaborDisappearBottom.png,Green.mp3,green,bottom,36,36,0,,,,0,36,36,63,840.3057572920001,,,,,,,,,,,,,,,,bottom,,,,,,,,840.2925585419999,844.7227743340001,844.722949584,849.972749834,849.9831424590001,851.2226641670001,851.224451209,852.02380325,852.024307,853.10676875,mostlygreen,FinalRedContrast,FinalGreenContrast,853.1075743340001,854.290185834,3,260508gh,001,2026-05-08_14h18.37.454,priming,,2026.1.3,59.89648402126582,2026-05-08 14h18.37.787876 -0700,
GR_Congruent_RedCue_RedProbe_Top,GreenGaborBoth.png,RedGaborBoth.png,GreenGaborBoth.png,RedGaborDisappearTop.png,Red.mp3,red,top,37,37,0,,,,0,37,37,40,854.305847,,,,,,,,,,,,,,,,top,,,,,,,,854.292693834,857.322914875,857.3230983750001,862.5727057089999,862.582913375,863.822648167,863.8244310419999,864.8897479999999,864.89138825,865.890163209,evensplit,FinalRedContrast,FinalGreenContrast,865.892276792,866.973463334,3,260508gh,001,2026-05-08_14h18.37.454,priming,,2026.1.3,59.89648402126582,2026-05-08 14h18.37.787876 -0700,
GG_non_riv_catch_GreenCue_GreenProbe_Top,GreenGaborBoth.png,Blank.png,GreenGaborDisappearTop.png,Blank.png,Green.mp3,green,top,38,38,0,,,,0,38,38,78,866.989189584,,,,,,,,,,,,,,,,top,,,,,,,,866.9764792499999,867.989636875,867.9898386670001,873.239325167,873.248708959,874.4892471669999,874.4911384999999,875.0063972500001,875.007928875,876.2071756669999,allgreen,FinalRedContrast,FinalGreenContrast,876.207629459,876.9234808750001,3,260508gh,001,2026-05-08_14h18.37.454,priming,,2026.1.3,59.89648402126582,2026-05-08 14h18.37.787876 -0700,
GR_Congruent_GreenCue_GreenProbe_Top,GreenGaborBoth.png,RedGaborBoth.png,GreenGaborDisappearTop.png,RedGaborBoth.png,Green.mp3,green,top,39,39,0,,,,0,39,39,18,876.939212375,,,,,,,,,,,,,,,,top,,,,,,,,876.923679375,877.939573625,877.939751792,883.1894647089999,883.1979426669999,884.4394564170001,884.4411395420001,884.9902369170001,884.9914725,886.0403454589999,evensplit,FinalRedContrast,FinalGreenContrast,886.041099417,887.207540834,3,260508gh,001,2026-05-08_14h18.37.454,priming,,2026.1.3,59.89648402126582,2026-05-08 14h18.37.787876 -0700,
GR_Congruent_GreenCue_GreenProbe_Top,GreenGaborBoth.png,RedGaborBoth.png,GreenGaborDisappearTop.png,RedGaborBoth.png,Green.mp3,green,top,40,40,0,,,,0,40,40,66,887.222637125,,,,,,,,,,,,,,,,top,,,,,,,,887.2076740000001,888.6397996669999,888.6399810839999,893.8894087919999,893.8995932920001,895.1394242089999,895.141217834,895.723181834,895.7245363339999,897.056872,evensplit,FinalRedContrast,FinalGreenContrast,897.057748375,898.5069036670001,3,260508gh,001,2026-05-08_14h18.37.454,priming,,2026.1.3,59.89648402126582,2026-05-08 14h18.37.787876 -0700,
GR_Congruent_GreenCue_GreenProbe_Top,GreenGaborBoth.png,RedGaborBoth.png,GreenGaborDisappearTop.png,RedGaborBoth.png,Green.mp3,green,top,41,41,0,,,,0,41,41,2,898.5226482920001,,,,,,,,,,,,,,,,top,,,,,,,,898.5071967089999,903.77307525,903.773243709,909.0227579169999,909.032738042,910.2726954169999,910.274805334,910.756456167,910.7580779169999,912.7235489169999,evensplit,FinalRedContrast,FinalGreenContrast,912.724770959,913.673599459,3,260508gh,001,2026-05-08_14h18.37.454,priming,,2026.1.3,59.89648402126582,2026-05-08 14h18.37.787876 -0700,
GR_Congruent_RedCue_RedProbe_Bottom,GreenGaborBoth.png,RedGaborBoth.png,GreenGaborBoth.png,RedGaborDisappearBottom.png,Red.mp3,red,bottom,42,42,0,,,,0,42,42,49,913.689342125,,,,,,,,,,,,,,,,bottom,,,,,,,,913.6762480839999,918.491380625,918.491564584,923.73962475,923.7486736669999,924.989499125,924.991569917,927.406653167,927.40756525,928.6404859590001,mostlyred,FinalRedContrast,FinalGreenContrast,928.641613459,929.540333,3,260508gh,001,2026-05-08_14h18.37.454,priming,,2026.1.3,59.89648402126582,2026-05-08 14h18.37.787876 -0700,
GR_Incongruent_RedCue_GreenProbe_Top,GreenGaborBoth.png,RedGaborBoth.png,GreenGaborDisappearTop.png,RedGaborBoth.png,Red.mp3,red,top,43,43,0,,,,0,43,43,12,929.556107042,,,,,,,,,,,,,,,,top,,,,,,,,929.540574,930.5900487499999,930.5902260419999,935.8395885419999,935.8481801250001,937.0896100419999,937.0913234999999,938.006634042,938.00827025,939.0571001249999,evensplit,FinalRedContrast,FinalGreenContrast,939.0575725,940.207022875,3,260508gh,001,2026-05-08_14h18.37.454,priming,,2026.1.3,59.89648402126582,2026-05-08 14h18.37.787876 -0700,
GR_Incongruent_GreenCue_RedProbe_Top,GreenGaborBoth.png,RedGaborBoth.png,GreenGaborBoth.png,RedGaborDisappearTop.png,Green.mp3,green,top,44,44,0,,,,0,44,44,46,940.2227522090001,,,,,,,,,,,,,,,,top,,,,,,,,940.21142125,942.189839584,942.190015542,947.4395512090001,947.447816125,948.6895808749999,948.6916057919999,949.973289875,949.9751029170001,950.607012,allgreen,FinalRedContrast,FinalGreenContrast,950.608315667,951.590522417,3,260508gh,001,2026-05-08_14h18.37.454,priming,,2026.1.3,59.89648402126582,2026-05-08 14h18.37.787876 -0700,
GR_Incongruent_GreenCue_RedProbe_Bottom,GreenGaborBoth.png,RedGaborBoth.png,GreenGaborBoth.png,RedGaborDisappearBottom.png,Green.mp3,green,bottom,45,45,0,,,,0,45,45,39,951.606256209,,,,,,,,,,,,,,,,bottom,,,,,,,,951.5907746669999,953.189982584,953.1901710420001,958.439605334,958.44956575,959.689614084,959.69144275,960.2567219169999,960.258156834,961.7572100420001,mostlygreen,FinalRedContrast,FinalGreenContrast,961.7593564590001,964.390497125,3,260508gh,001,2026-05-08_14h18.37.454,priming,,2026.1.3,59.89648402126582,2026-05-08 14h18.37.787876 -0700,
GR_Congruent_GreenCue_GreenProbe_Bottom,GreenGaborBoth.png,RedGaborBoth.png,GreenGaborDisappearBottom.png,RedGaborBoth.png,Green.mp3,green,bottom,46,46,0,,,,0,46,46,27,964.4063092499999,,,,,,,,,,,,,,,,bottom,,,,,,,,964.3906905,966.106622459,966.10679625,971.356337667,971.367462042,972.6063634169999,972.6082115,973.20680575,973.2084820419999,974.890505792,mostlygreen,FinalRedContrast,FinalGreenContrast,974.891854334,975.407174625,3,260508gh,001,2026-05-08_14h18.37.454,priming,,2026.1.3,59.89648402126582,2026-05-08 14h18.37.787876 -0700,
GR_Congruent_RedCue_RedProbe_Top,GreenGaborBoth.png,RedGaborBoth.png,GreenGaborBoth.png,RedGaborDisappearTop.png,Red.mp3,red,top,47,47,0,,,,0,47,47,16,975.422978959,,,,,,,,,,,,,,,,top,,,,,,,,975.4105316250001,987.5735767499999,987.573874584,992.82312425,992.8332899169999,994.073104,994.0750778749999,996.3569013749999,996.3587509170001,997.9072895,mostlyred,FinalRedContrast,FinalGreenContrast,997.9084877500001,1000.0239740420001,2,260508gh,001,2026-05-08_14h18.37.454,priming,,2026.1.3,59.89648402126582,2026-05-08 14h18.37.787876 -0700,
GR_Congruent_RedCue_RedProbe_Bottom,GreenGaborBoth.png,RedGaborBoth.png,GreenGaborBoth.png,RedGaborDisappearBottom.png,Red.mp3,red,bottom,48,48,0,,,,0,48,48,1,1000.0397219170001,,,,,,,,,,,,,,,,bottom,,,,,,,,1000.0242400420001,1001.99015625,1001.9903265419999,1007.2398019999999,1007.24978675,1008.4898180419999,1008.4917165420001,1008.9902014170001,1008.9918577499999,1009.79061625,allred,FinalRedContrast,FinalGreenContrast,1009.792167875,1010.940638375,3,260508gh,001,2026-05-08_14h18.37.454,priming,,2026.1.3,59.89648402126582,2026-05-08 14h18.37.787876 -0700,
GR_Congruent_RedCue_RedProbe_Bottom,GreenGaborBoth.png,RedGaborBoth.png,GreenGaborBoth.png,RedGaborDisappearBottom.png,Red.mp3,red,bottom,49,49,0,,,,0,49,49,33,1010.956418417,,,,,,,,,,,,,,,,bottom,,,,,,,,1010.9408412500001,1012.073426709,1012.0735945,1017.3231715420001,1017.3321220419999,1018.573076667,1018.5748855,1019.2463006249999,1019.246595667,1020.0074766670001,evensplit,FinalRedContrast,FinalGreenContrast,1020.0087634170001,1020.607751459,3,260508gh,001,2026-05-08_14h18.37.454,priming,,2026.1.3,59.89648402126582,2026-05-08 14h18.37.787876 -0700,
GR_Incongruent_GreenCue_RedProbe_Bottom,GreenGaborBoth.png,RedGaborBoth.png,GreenGaborBoth.png,RedGaborDisappearBottom.png,Green.mp3,green,bottom,50,50,0,,,,0,50,50,31,1020.6232542920001,,,,,,,,,,,,,,,,bottom,,,,,,,,1020.610591542,1025.940335459,1025.940531792,1031.190016167,1031.199646959,1032.4399024590002,1032.4416823749998,1033.6236915,1033.624477709,1035.057464167,evensplit,FinalRedContrast,FinalGreenContrast,1035.0582436670002,1036.757405375,3,260508gh,001,2026-05-08_14h18.37.454,priming,,2026.1.3,59.89648402126582,2026-05-08 14h18.37.787876 -0700,
RR_non_riv_catch_RedCue_RedProbe_Top,Blank.png,RedGaborBoth.png,Blank.png,RedGaborDisappearTop.png,Red.mp3,red,top,51,51,0,,,,0,51,51,72,1036.7731684999999,,,,,,,,,,,,,,,,top,,,,,,,,1036.7602514999999,1039.65692025,1039.6571187499999,1044.9066512919999,1044.91612425,1046.156551042,1046.1584459169999,1046.807670667,1046.8081447089999,1049.3573688340002,allred,FinalRedContrast,FinalGreenContrast,1049.358782917,1051.190725375,3,260508gh,001,2026-05-08_14h18.37.454,priming,,2026.1.3,59.89648402126582,2026-05-08 14h18.37.787876 -0700,
GR_Congruent_GreenCue_GreenProbe_Bottom,GreenGaborBoth.png,RedGaborBoth.png,GreenGaborDisappearBottom.png,RedGaborBoth.png,Green.mp3,green,bottom,52,52,0,,,,0,52,52,11,1051.2065253750002,,,,,,,,,,,,,,,,bottom,,,,,,,,1051.1936082920001,1052.340191542,1052.340383667,1057.590067917,1057.5981206669999,1058.840088209,1058.8417489170001,1059.473871667,1059.4754855840001,1060.590922667,evensplit,FinalRedContrast,FinalGreenContrast,1060.5916537500002,1061.540877084,3,260508gh,001,2026-05-08_14h18.37.454,priming,,2026.1.3,59.89648402126582,2026-05-08 14h18.37.787876 -0700,
GR_Incongruent_GreenCue_RedProbe_Bottom,GreenGaborBoth.png,RedGaborBoth.png,GreenGaborBoth.png,RedGaborDisappearBottom.png,Green.mp3,green,bottom,53,53,0,,,,0,53,53,15,1061.5566349169999,,,,,,,,,,,,,,,,bottom,,,,,,,,1061.54108175,1062.79078575,1062.7909951249999,1068.0401241670002,1068.0502229170002,1069.2900597500002,1069.2919765000001,1069.9405082500002,1069.9417412090002,1071.057643792,evensplit,FinalRedContrast,FinalGreenContrast,1071.058357209,1072.1408415,3,260508gh,001,2026-05-08_14h18.37.454,priming,,2026.1.3,59.89648402126582,2026-05-08 14h18.37.787876 -0700,
RR_non_riv_catch_RedCue_RedProbe_Bottom,Blank.png,RedGaborBoth.png,Blank.png,RedGaborDisappearBottom.png,Red.mp3,red,bottom,54,54,0,,,,0,54,54,73,1072.1566133749998,,,,,,,,,,,,,,,,bottom,,,,,,,,1072.143506375,1073.207200667,1073.2073716670002,1078.456855,1078.4646524999998,1079.706762334,1079.7094057089998,1080.8434366669999,1080.8437307499998,1081.707513209,allred,FinalRedContrast,FinalGreenContrast,1081.7089392920002,1082.3741934999998,3,260508gh,001,2026-05-08_14h18.37.454,priming,,2026.1.3,59.89648402126582,2026-05-08 14h18.37.787876 -0700,
GR_Congruent_RedCue_RedProbe_Bottom,GreenGaborBoth.png,RedGaborBoth.png,GreenGaborBoth.png,RedGaborDisappearBottom.png,Red.mp3,red,bottom,55,55,0,,,,0,55,55,41,1082.3899965,,,,,,,,,,,,,,,,bottom,,,,,,,,1082.3744471670002,1083.123666292,1083.123841834,1088.373517084,1088.3828290420001,1089.623588459,1089.6251097499999,1090.4405862919998,1090.4423621669998,1091.041006334,evensplit,FinalRedContrast,FinalGreenContrast,1091.042376542,1091.941016417,3,260508gh,001,2026-05-08_14h18.37.454,priming,,2026.1.3,59.89648402126582,2026-05-08 14h18.37.787876 -0700,
GR_Incongruent_RedCue_GreenProbe_Top,GreenGaborBoth.png,RedGaborBoth.png,GreenGaborDisappearTop.png,RedGaborBoth.png,Red.mp3,red,top,56,56,0,,,,0,56,56,4,1091.9567742089998,,,,,,,,,,,,,,,,top,,,,,,,,1091.941132334,1092.8405103750001,1092.8406785840002,1098.090139459,1098.0981702089998,1099.3402041670001,1099.3426677500001,1100.574149084,1100.574722584,1101.5743777920002,mostlygreen,FinalRedContrast,FinalGreenContrast,1101.575650792,1102.7410144589999,3,260508gh,001,2026-05-08_14h18.37.454,priming,,2026.1.3,59.89648402126582,2026-05-08 14h18.37.787876 -0700,
GR_Congruent_RedCue_RedProbe_Bottom,GreenGaborBoth.png,RedGaborBoth.png,GreenGaborBoth.png,RedGaborDisappearBottom.png,Red.mp3,red,bottom,57,57,0,,,,0,57,57,25,1102.7567733340002,,,,,,,,,,,,,,,,bottom,,,,,,,,1102.7413220419999,1103.873814125,1103.8739783750002,1109.1235644170001,1109.13554075,1110.373502334,1110.375473959,1112.840590334,1112.841512375,1113.874353709,allgreen,FinalRedContrast,FinalGreenContrast,1113.875852834,1115.3576825,1,260508gh,001,2026-05-08_14h18.37.454,priming,,2026.1.3,59.89648402126582,2026-05-08 14h18.37.787876 -0700,
GR_Congruent_GreenCue_GreenProbe_Bottom,GreenGaborBoth.png,RedGaborBoth.png,GreenGaborDisappearBottom.png,RedGaborBoth.png,Green.mp3,green,bottom,58,58,0,,,,0,58,58,35,1115.3734493339998,,,,,,,,,,,,,,,,bottom,,,,,,,,1115.360579625,1117.0572053750002,1117.0573866250002,1122.3069192090002,1122.315603167,1123.5570494590002,1123.5588294170002,1125.7408062089999,1125.7421020000002,1126.941191334,allgreen,FinalRedContrast,FinalGreenContrast,1126.941936542,1127.97494625,4,260508gh,001,2026-05-08_14h18.37.454,priming,,2026.1.3,59.89648402126582,2026-05-08 14h18.37.787876 -0700,
GR_Incongruent_RedCue_GreenProbe_Top,GreenGaborBoth.png,RedGaborBoth.png,GreenGaborDisappearTop.png,RedGaborBoth.png,Red.mp3,red,top,59,59,0,,,,0,59,59,36,1127.990236959,,,,,,,,,,,,,,,,top,,,,,,,,1127.976943917,1129.3740364589999,1129.3742754999998,1134.6236306249998,1134.631864,1135.873723709,1135.875567875,1137.791405125,1137.792142875,1139.3911475,evensplit,FinalRedContrast,FinalGreenContrast,1139.3923219590001,1141.2079089170002,3,260508gh,001,2026-05-08_14h18.37.454,priming,,2026.1.3,59.89648402126582,2026-05-08 14h18.37.787876 -0700,
GR_Incongruent_GreenCue_RedProbe_Top,GreenGaborBoth.png,RedGaborBoth.png,GreenGaborBoth.png,RedGaborDisappearTop.png,Green.mp3,green,top,60,60,0,,,,0,60,60,6,1141.223578042,,,,,,,,,,,,,,,,top,,,,,,,,1141.2105272089998,1144.690608209,1144.690775959,1149.9404677090001,1149.9514142500002,1151.190270917,1151.192036417,1151.774489584,1151.775506459,1153.2244747089999,mostlygreen,FinalRedContrast,FinalGreenContrast,1153.2257893750002,1154.6077933339998,3,260508gh,001,2026-05-08_14h18.37.454,priming,,2026.1.3,59.89648402126582,2026-05-08 14h18.37.787876 -0700,
GR_Incongruent_RedCue_GreenProbe_Bottom,GreenGaborBoth.png,RedGaborBoth.png,GreenGaborDisappearBottom.png,RedGaborBoth.png,Red.mp3,red,bottom,61,61,0,,,,0,61,61,53,1154.6235271669998,,,,,,,,,,,,,,,,bottom,,,,,,,,1154.6117235420002,1155.5572710420001,1155.557434542,1160.8072080420002,1160.816290875,1162.057159125,1162.058956125,1163.0909608339998,1163.092274917,1163.991263084,mostlyred,FinalRedContrast,FinalGreenContrast,1163.9925359170002,1165.174693125,3,260508gh,001,2026-05-08_14h18.37.454,priming,,2026.1.3,59.89648402126582,2026-05-08 14h18.37.787876 -0700,
GR_Congruent_GreenCue_GreenProbe_Bottom,GreenGaborBoth.png,RedGaborBoth.png,GreenGaborDisappearBottom.png,RedGaborBoth.png,Green.mp3,green,bottom,62,62,0,,,,0,62,62,3,1165.190402792,,,,,,,,,,,,,,,,bottom,,,,,,,,1165.177757292,1165.874110792,1165.874288292,1171.123863792,1171.132784167,1172.373788709,1172.376019709,1173.0408767499998,1173.0425125420002,1174.2079295839999,mostlygreen,FinalRedContrast,FinalGreenContrast,1174.209281084,1175.3583268339999,3,260508gh,001,2026-05-08_14h18.37.454,priming,,2026.1.3,59.89648402126582,2026-05-08 14h18.37.787876 -0700,
GR_Incongruent_GreenCue_RedProbe_Bottom,GreenGaborBoth.png,RedGaborBoth.png,GreenGaborBoth.png,RedGaborDisappearBottom.png,Green.mp3,green,bottom,63,63,0,,,,0,63,63,23,1175.3736708749998,,,,,,,,,,,,,,,,bottom,,,,,,,,1175.3585304590001,1177.390942,1177.3911103750002,1182.6405596670002,1182.6490628749998,1183.8906014590002,1183.8923685,1184.6575238340001,1184.6593108339998,1187.224620209,evensplit,FinalRedContrast,FinalGreenContrast,1187.225894584,1188.957909792,2,260508gh,001,2026-05-08_14h18.37.454,priming,,2026.1.3,59.89648402126582,2026-05-08 14h18.37.787876 -0700,
GR_Incongruent_RedCue_GreenProbe_Bottom,GreenGaborBoth.png,RedGaborBoth.png,GreenGaborDisappearBottom.png,RedGaborBoth.png,Red.mp3,red,bottom,64,64,0,,,,0,64,64,69,1188.9736803340002,,,,,,,,,,,,,,,,bottom,,,,,,,,1188.9608657499998,1189.6741662499999,1189.6743394589998,1194.923990917,1194.934120167,1196.1739660419998,1196.1757777500002,1197.157618542,1197.159340625,1197.641399834,evensplit,FinalRedContrast,FinalGreenContrast,1197.6427437920001,1199.808125292,3,260508gh,001,2026-05-08_14h18.37.454,priming,,2026.1.3,59.89648402126582,2026-05-08 14h18.37.787876 -0700,
GR_Congruent_RedCue_RedProbe_Top,GreenGaborBoth.png,RedGaborBoth.png,GreenGaborBoth.png,RedGaborDisappearTop.png,Red.mp3,red,top,65,65,0,,,,0,65,65,64,1199.823829292,,,,,,,,,,,,,,,,top,,,,,,,,1199.8082439589998,1203.2243523749999,1203.2245251670001,1208.4739505420002,1208.48356375,1209.724147167,1209.7266225420003,1211.0077180840003,1211.008520334,1211.7747358750003,mostlygreen,FinalRedContrast,FinalGreenContrast,1211.776078292,1212.5752355,3,260508gh,001,2026-05-08_14h18.37.454,priming,,2026.1.3,59.89648402126582,2026-05-08 14h18.37.787876 -0700,
GR_Incongruent_GreenCue_RedProbe_Bottom,GreenGaborBoth.png,RedGaborBoth.png,GreenGaborBoth.png,RedGaborDisappearBottom.png,Green.mp3,green,bottom,66,66,0,,,,0,66,66,71,1212.590512792,,,,,,,,,,,,,,,,bottom,,,,,,,,1212.578348,1213.474215709,1213.474393334,1218.724028875,1218.735160709,1219.974098792,1219.975989209,1220.641234875,1220.642273334,1222.791354292,mostlygreen,FinalRedContrast,FinalGreenContrast,1222.79271625,1223.6913948750002,3,260508gh,001,2026-05-08_14h18.37.454,priming,,2026.1.3,59.89648402126582,2026-05-08 14h18.37.787876 -0700,
GR_Incongruent_RedCue_GreenProbe_Bottom,GreenGaborBoth.png,RedGaborBoth.png,GreenGaborDisappearBottom.png,RedGaborBoth.png,Red.mp3,red,bottom,67,67,0,,,,0,67,67,29,1223.7071409590003,,,,,,,,,,,,,,,,bottom,,,,,,,,1223.6932457500002,1224.6575873750003,1224.6577607090003,1229.907386542,1229.917958334,1231.1573483340003,1231.159335459,1231.841223209,1231.8427637090003,1232.6081733750002,mostlyred,FinalRedContrast,FinalGreenContrast,1232.609303959,1233.724851042,3,260508gh,001,2026-05-08_14h18.37.454,priming,,2026.1.3,59.89648402126582,2026-05-08 14h18.37.787876 -0700,
GR_Congruent_RedCue_RedProbe_Top,GreenGaborBoth.png,RedGaborBoth.png,GreenGaborBoth.png,RedGaborDisappearTop.png,Red.mp3,red,top,68,68,0,,,,0,68,68,24,1233.7406272920002,,,,,,,,,,,,,,,,top,,,,,,,,1233.7255008750003,1235.424338459,1235.4245047090003,1240.674139834,1240.6832087500002,1241.9240004170001,1241.925870125,1243.024458084,1243.0262672920003,1246.041488792,mostlyred,FinalRedContrast,FinalGreenContrast,1246.0423530000003,1247.558213959,3,260508gh,001,2026-05-08_14h18.37.454,priming,,2026.1.3,59.89648402126582,2026-05-08 14h18.37.787876 -0700,
GR_Congruent_RedCue_RedProbe_Top,GreenGaborBoth.png,RedGaborBoth.png,GreenGaborBoth.png,RedGaborDisappearTop.png,Red.mp3,red,top,69,69,0,,,,0,69,69,8,1247.573959584,,,,,,,,,,,,,,,,top,,,,,,,,1247.5584870420003,1248.907662875,1248.907847292,1254.1573859170003,1254.16568375,1255.407312292,1255.409257584,1256.091169834,1256.092548042,1257.341522959,allgreen,FinalRedContrast,FinalGreenContrast,1257.3429663340003,1258.408262375,3,260508gh,001,2026-05-08_14h18.37.454,priming,,2026.1.3,59.89648402126582,2026-05-08 14h18.37.787876 -0700,
GR_Congruent_RedCue_RedProbe_Bottom,GreenGaborBoth.png,RedGaborBoth.png,GreenGaborBoth.png,RedGaborDisappearBottom.png,Red.mp3,red,bottom,70,70,0,,,,0,70,70,65,1258.423954125,,,,,,,,,,,,,,,,bottom,,,,,,,,1258.408441125,1259.091034084,1259.0911983340002,1264.3408401250003,1264.3506295000002,1265.5909536670001,1265.593006959,1266.741209542,1266.7425635,1268.0082777090001,allgreen,FinalRedContrast,FinalGreenContrast,1268.0096828340002,1268.6749863750001,3,260508gh,001,2026-05-08_14h18.37.454,priming,,2026.1.3,59.89648402126582,2026-05-08 14h18.37.787876 -0700,
GR_Incongruent_RedCue_GreenProbe_Bottom,GreenGaborBoth.png,RedGaborBoth.png,GreenGaborDisappearBottom.png,RedGaborBoth.png,Red.mp3,red,bottom,71,71,0,,,,0,71,71,5,1268.690706167,,,,,,,,,,,,,,,,bottom,,,,,,,,1268.6750980840002,1270.7578240840003,1270.757992292,1276.007525084,1276.0157776250003,1277.2574918750001,1277.260162084,1278.0080225840002,1278.0087360000002,1278.924951209,evensplit,FinalRedContrast,FinalGreenContrast,1278.92622825,1279.758796917,3,260508gh,001,2026-05-08_14h18.37.454,priming,,2026.1.3,59.89648402126582,2026-05-08 14h18.37.787876 -0700,
GR_Congruent_GreenCue_GreenProbe_Bottom,GreenGaborBoth.png,RedGaborBoth.png,GreenGaborDisappearBottom.png,RedGaborBoth.png,Green.mp3,green,bottom,72,72,0,,,,0,72,72,43,1279.774084709,,,,,,,,,,,,,,,,bottom,,,,,,,,1279.7618526670003,1280.2911398340002,1280.2913120420003,1285.540939125,1285.5507363750003,1286.790873292,1286.7926339170003,1288.0079969590001,1288.0093807500002,1289.408434042,allgreen,FinalRedContrast,FinalGreenContrast,1289.409318,1290.558713625,3,260508gh,001,2026-05-08_14h18.37.454,priming,,2026.1.3,59.89648402126582,2026-05-08 14h18.37.787876 -0700,
GR_Congruent_GreenCue_GreenProbe_Top,GreenGaborBoth.png,RedGaborBoth.png,GreenGaborDisappearTop.png,RedGaborBoth.png,Green.mp3,green,top,73,73,0,,,,0,73,73,10,1290.574085667,,,,,,,,,,,,,,,,top,,,,,,,,1290.558903,1292.157816542,1292.1580047090001,1297.4076063340003,1297.416182167,1298.657643292,1298.6591675,1299.541367792,1299.5427222090002,1301.258401042,evensplit,FinalRedContrast,FinalGreenContrast,1301.259770792,1302.4251036250002,3,260508gh,001,2026-05-08_14h18.37.454,priming,,2026.1.3,59.89648402126582,2026-05-08 14h18.37.787876 -0700,
RR_non_riv_catch_GreenCue_RedProbe_Top,Blank.png,RedGaborBoth.png,Blank.png,RedGaborDisappearTop.png,Green.mp3,green,top,74,74,0,,,,0,74,74,74,1302.4408467090002,,,,,,,,,,,,,,,,top,,,,,,,,1302.425249417,1303.4246134590003,1303.42477675,1308.674307584,1308.682564917,1309.924329209,1309.9262365,1310.608048084,1310.6089213340001,1311.7584442920001,allred,FinalRedContrast,FinalGreenContrast,1311.759751875,1312.7084599590003,3,260508gh,001,2026-05-08_14h18.37.454,priming,,2026.1.3,59.89648402126582,2026-05-08 14h18.37.787876 -0700,
GR_Congruent_RedCue_RedProbe_Bottom,GreenGaborBoth.png,RedGaborBoth.png,GreenGaborBoth.png,RedGaborDisappearBottom.png,Red.mp3,red,bottom,75,75,0,,,,0,75,75,9,1312.724186542,,,,,,,,,,,,,,,,bottom,,,,,,,,1312.712106334,1313.574647542,1313.5748226670003,1318.824243209,1318.832893834,1320.074284334,1320.0759750000002,1321.0080537090003,1321.0091695,1322.69180275,mostlyred,FinalRedContrast,FinalGreenContrast,1322.69265,1323.80842425,3,260508gh,001,2026-05-08_14h18.37.454,priming,,2026.1.3,59.89648402126582,2026-05-08 14h18.37.787876 -0700,
GR_Congruent_GreenCue_GreenProbe_Top,GreenGaborBoth.png,RedGaborBoth.png,GreenGaborDisappearTop.png,RedGaborBoth.png,Green.mp3,green,top,76,76,0,,,,0,76,76,58,1323.8242035420003,,,,,,,,,,,,,,,,bottom,,,,,,,,1323.8107196250003,1326.441242084,1326.441406584,1331.690995292,1331.699828417,1332.94110925,1332.942898625,1333.374925917,1333.375747959,1339.3752248340002,mostlygreen,FinalRedContrast,FinalGreenContrast,1339.376552667,1340.2752491670003,3,260508gh,001,2026-05-08_14h18.37.454,priming,,2026.1.3,59.89648402126582,2026-05-08 14h18.37.787876 -0700,
GG_non_riv_catch_RedCue_GreenProbe_Bottom,GreenGaborBoth.png,Blank.png,GreenGaborDisappearBottom.png,Blank.png,Red.mp3,red,bottom,77,77,0,,,,0,77,77,77,1340.290982,,,,,,,,,,,,,,,,bottom,,,,,,,,1340.2777981250001,1341.1583382920003,1341.1585046670002,1346.4077995840003,1346.4163695840002,1347.65773825,1347.6596731670002,1348.4248552920003,1348.426567042,1349.6752687920002,allgreen,FinalRedContrast,FinalGreenContrast,1349.676095625,1351.258591459,3,260508gh,001,2026-05-08_14h18.37.454,priming,,2026.1.3,59.89648402126582,2026-05-08 14h18.37.787876 -0700,
GR_Incongruent_RedCue_GreenProbe_Bottom,GreenGaborBoth.png,RedGaborBoth.png,GreenGaborDisappearBottom.png,RedGaborBoth.png,Red.mp3,red,bottom,78,78,0,,,,0,78,78,37,1351.27437675,,,,,,,,,,,,,,,,bottom,,,,,,,,1351.258696667,1354.3486332090001,1354.3488094590002,1359.5912158750002,1359.600869667,1360.8410639590002,1360.8428410000001,1362.058118,1362.059524334,1363.3424072090002,evensplit,FinalRedContrast,FinalGreenContrast,1363.3427820000002,1364.3423455840002,3,260508gh,001,2026-05-08_14h18.37.454,priming,,2026.1.3,59.89648402126582,2026-05-08 14h18.37.787876 -0700,
GR_Incongruent_RedCue_GreenProbe_Top,GreenGaborBoth.png,RedGaborBoth.png,GreenGaborDisappearTop.png,RedGaborBoth.png,Red.mp3,red,top,79,79,0,,,,0,79,79,68,1364.3576471250003,,,,,,,,,,,,,,,,top,,,,,,,,1364.342638042,1366.741909125,1366.7420888340002,1371.9912750840003,1372.000565834,1373.2413175000002,1373.243643584,1374.82494825,1374.8262999590002,1376.3420892500003,mostlygreen,FinalRedContrast,FinalGreenContrast,1376.34294125,1376.9253535000003,3,260508gh,001,2026-05-08_14h18.37.454,priming,,2026.1.3,59.89648402126582,2026-05-08 14h18.37.787876 -0700,
GR_Incongruent_RedCue_GreenProbe_Top,GreenGaborBoth.png,RedGaborBoth.png,GreenGaborDisappearTop.png,RedGaborBoth.png,Red.mp3,red,top,80,0,1,,,,1,0,80,20,1376.9411191250001,,,,,,,,,,,,,,,,top,,,,,,,,1376.9255937090002,1378.591560459,1378.5917395000001,1383.841196584,1383.851347709,1385.091184334,1385.0930655840002,1386.5083411250002,1386.509908,1387.3591872920001,evensplit,FinalRedContrast,FinalGreenContrast,1387.3594895420001,1387.9420035420003,2,260508gh,001,2026-05-08_14h18.37.454,priming,,2026.1.3,59.89648402126582,2026-05-08 14h18.37.787876 -0700,
GR_Incongruent_RedCue_GreenProbe_Top,GreenGaborBoth.png,RedGaborBoth.png,GreenGaborDisappearTop.png,RedGaborBoth.png,Red.mp3,red,top,81,1,1,,,,1,1,81,12,1387.9578377090002,,,,,,,,,,,,,,,,top,,,,,,,,1387.94222,1398.4916344590001,1398.491820542,1403.741438,1403.7516500840002,1404.991314459,1404.9935486250001,1406.0443445,1406.0446634170003,1407.2588845,allgreen,FinalRedContrast,FinalGreenContrast,1407.259635459,1408.5088541670002,3,260508gh,001,2026-05-08_14h18.37.454,priming,,2026.1.3,59.89648402126582,2026-05-08 14h18.37.787876 -0700,
GR_Congruent_GreenCue_GreenProbe_Bottom,GreenGaborBoth.png,RedGaborBoth.png,GreenGaborDisappearBottom.png,RedGaborBoth.png,Green.mp3,green,bottom,82,2,1,,,,1,2,82,35,1408.524573959,,,,,,,,,,,,,,,,bottom,,,,,,,,1408.5119958750001,1409.491710417,1409.491878625,1414.7413241670001,1414.750142334,1415.991312875,1415.993619584,1416.9423474590003,1416.9433706670002,1417.858880542,mostlygreen,FinalRedContrast,FinalGreenContrast,1417.8597127090002,1418.7588515840002,3,260508gh,001,2026-05-08_14h18.37.454,priming,,2026.1.3,59.89648402126582,2026-05-08 14h18.37.787876 -0700,
GR_Congruent_GreenCue_GreenProbe_Top,GreenGaborBoth.png,RedGaborBoth.png,GreenGaborDisappearTop.png,RedGaborBoth.png,Green.mp3,green,top,83,3,1,,,,1,3,83,10,1418.7746335000002,,,,,,,,,,,,,,,,top,,,,,,,,1418.759037417,1419.7416577500003,1419.7418266250002,1424.991310542,1424.999397917,1426.241315584,1426.2430048750002,1426.8417610000001,1426.8431163340001,1427.708951125,allgreen,FinalRedContrast,FinalGreenContrast,1427.710091209,1429.075486542,3,260508gh,001,2026-05-08_14h18.37.454,priming,,2026.1.3,59.89648402126582,2026-05-08 14h18.37.787876 -0700,
GR_Congruent_GreenCue_GreenProbe_Top,GreenGaborBoth.png,RedGaborBoth.png,GreenGaborDisappearTop.png,RedGaborBoth.png,Green.mp3,green,top,84,4,1,,,,1,4,84,58,1429.091240959,,,,,,,,,,,,,,,,top,,,,,,,,1429.075591667,1432.075119792,1432.07549225,1437.3246651670001,1437.3347705,1438.5748195,1438.577156334,1440.0602237500002,1440.0605111670002,1442.575658625,mostlygreen,FinalRedContrast,FinalGreenContrast,1442.576811375,1443.6589683340003,3,260508gh,001,2026-05-08_14h18.37.454,priming,,2026.1.3,59.89648402126582,2026-05-08 14h18.37.787876 -0700,
GR_Incongruent_GreenCue_RedProbe_Top,GreenGaborBoth.png,RedGaborBoth.png,GreenGaborBoth.png,RedGaborDisappearTop.png,Green.mp3,green,top,85,5,1,,,,1,5,85,46,1443.674730709,,,,,,,,,,,,,,,,top,,,,,,,,1443.659244334,1623.703819209,1623.704114917,1628.942143667,1628.9536699170003,1630.192105084,1630.195518167,1630.8591704170003,1630.8606357500003,1631.94318475,evensplit,FinalRedContrast,FinalGreenContrast,1631.943832042,1632.792936792,3,260508gh,001,2026-05-08_14h18.37.454,priming,,2026.1.3,59.89648402126582,2026-05-08 14h18.37.787876 -0700,
GR_Congruent_GreenCue_GreenProbe_Top,GreenGaborBoth.png,RedGaborBoth.png,GreenGaborDisappearTop.png,RedGaborBoth.png,Green.mp3,green,top,86,6,1,,,,1,6,86,42,1632.808681292,,,,,,,,,,,,,,,,top,,,,,,,,1632.793208084,1642.7257317920003,1642.7259023750003,1647.975433959,1647.98542425,1649.2253798340003,1649.2272372920002,1649.959251709,1649.9601565420003,1650.6929327500002,mostlygreen,FinalRedContrast,FinalGreenContrast,1650.694319667,1652.1096992920002,3,260508gh,001,2026-05-08_14h18.37.454,priming,,2026.1.3,59.89648402126582,2026-05-08 14h18.37.787876 -0700,
GR_Incongruent_RedCue_GreenProbe_Bottom,GreenGaborBoth.png,RedGaborBoth.png,GreenGaborDisappearBottom.png,RedGaborBoth.png,Red.mp3,red,bottom,87,7,1,,,,1,7,87,61,1652.125513417,,,,,,,,,,,,,,,,bottom,,,,,,,,1652.112344917,1652.7592166250001,1652.7593875420002,1658.008933042,1658.0175587090002,1659.258896834,1659.260943417,1659.9098008750002,1659.9108537920001,1660.8264745000001,evensplit,FinalRedContrast,FinalGreenContrast,1660.827230125,1661.676404584,3,260508gh,001,2026-05-08_14h18.37.454,priming,,2026.1.3,59.89648402126582,2026-05-08 14h18.37.787876 -0700,
GR_Congruent_GreenCue_GreenProbe_Bottom,GreenGaborBoth.png,RedGaborBoth.png,GreenGaborDisappearBottom.png,RedGaborBoth.png,Green.mp3,green,bottom,88,8,1,,,,1,8,88,11,1661.692173584,,,,,,,,,,,,,,,,bottom,,,,,,,,1661.6784495420002,1662.592783875,1662.592951042,1667.842375625,1667.8507893340002,1669.0922369590003,1669.094391834,1671.1928751250002,1671.1939428750002,1672.009763084,mostlygreen,FinalRedContrast,FinalGreenContrast,1672.0110600420003,1673.126591959,3,260508gh,001,2026-05-08_14h18.37.454,priming,,2026.1.3,59.89648402126582,2026-05-08 14h18.37.787876 -0700,
GR_Congruent_GreenCue_GreenProbe_Bottom,GreenGaborBoth.png,RedGaborBoth.png,GreenGaborDisappearBottom.png,RedGaborBoth.png,Green.mp3,green,bottom,89,9,1,,,,1,9,89,67,1673.1421462500002,,,,,,,,,,,,,,,,bottom,,,,,,,,1673.126828375,1674.9592700420003,1674.9594362500002,1680.208906584,1680.218903375,1681.458884834,1681.4605782500003,1682.1093418750002,1682.110773292,1682.9430605000002,mostlygreen,FinalRedContrast,FinalGreenContrast,1682.9444094170003,1683.959838417,2,260508gh,001,2026-05-08_14h18.37.454,priming,,2026.1.3,59.89648402126582,2026-05-08 14h18.37.787876 -0700,
GR_Congruent_RedCue_RedProbe_Bottom,GreenGaborBoth.png,RedGaborBoth.png,GreenGaborBoth.png,RedGaborDisappearBottom.png,Red.mp3,red,bottom,90,10,1,,,,1,10,90,17,1683.9754804590002,,,,,,,,,,,,,,,,bottom,,,,,,,,1683.9625702090002,1685.959284042,1685.9594602500001,1691.208994875,1691.2176423750002,1692.4590065840002,1692.4607745420003,1693.1428045000002,1693.1445562920003,1694.2432322090003,allgreen,FinalRedContrast,FinalGreenContrast,1694.2438465,1694.7766405840002,3,260508gh,001,2026-05-08_14h18.37.454,priming,,2026.1.3,59.89648402126582,2026-05-08 14h18.37.787876 -0700,
GR_Congruent_RedCue_RedProbe_Bottom,GreenGaborBoth.png,RedGaborBoth.png,GreenGaborBoth.png,RedGaborDisappearBottom.png,Red.mp3,red,bottom,91,11,1,,,,1,11,91,1,1694.792274584,,,,,,,,,,,,,,,,bottom,,,,,,,,1694.776747667,1696.0260040420003,1696.026191125,1701.275691417,1701.284042667,1702.5257274590003,1702.5275687500002,1703.893525334,1703.894394042,1704.676661375,allgreen,FinalRedContrast,FinalGreenContrast,1704.6779112500003,1706.059865959,3,260508gh,001,2026-05-08_14h18.37.454,priming,,2026.1.3,59.89648402126582,2026-05-08 14h18.37.787876 -0700,
RR_non_riv_catch_GreenCue_RedProbe_Bottom,Blank.png,RedGaborBoth.png,Blank.png,RedGaborDisappearBottom.png,Green.mp3,green,bottom,92,12,1,,,,1,12,92,75,1706.0756338340002,,,,,,,,,,,,,,,,bottom,,,,,,,,1706.0637380000003,1708.22602375,1708.2261909590002,1713.4756876670003,1713.484369334,1714.7256968750003,1714.727718792,1715.7261067920003,1715.7271995,1716.726683542,allred,FinalRedContrast,FinalGreenContrast,1716.727053834,1717.776499959,3,260508gh,001,2026-05-08_14h18.37.454,priming,,2026.1.3,59.89648402126582,2026-05-08 14h18.37.787876 -0700,
GR_Incongruent_RedCue_GreenProbe_Bottom,GreenGaborBoth.png,RedGaborBoth.png,GreenGaborDisappearBottom.png,RedGaborBoth.png,Red.mp3,red,bottom,93,13,1,,,,1,13,93,29,1717.792301334,,,,,,,,,,,,,,,,bottom,,,,,,,,1717.7781560840003,1719.659312375,1719.659484292,1724.9091696670002,1724.917744292,1726.1591855000001,1726.16172675,1727.1096053340002,1727.11080825,1728.52672075,evensplit,FinalRedContrast,FinalGreenContrast,1728.52789975,1729.610018625,3,260508gh,001,2026-05-08_14h18.37.454,priming,,2026.1.3,59.89648402126582,2026-05-08 14h18.37.787876 -0700,
GR_Incongruent_RedCue_GreenProbe_Bottom,GreenGaborBoth.png,RedGaborBoth.png,GreenGaborDisappearBottom.png,RedGaborBoth.png,Red.mp3,red,bottom,94,14,1,,,,1,14,94,21,1729.625728334,,,,,,,,,,,,,,,,bottom,,,,,,,,1729.610287,1731.026136459,1731.0263090000003,1736.2759082090001,1736.2872110840003,1737.525809792,1737.5275771250003,1738.476382292,1738.477673459,1740.2433676250002,allgreen,FinalRedContrast,FinalGreenContrast,1740.2442148750001,1741.6600348750003,3,260508gh,001,2026-05-08_14h18.37.454,priming,,2026.1.3,59.89648402126582,2026-05-08 14h18.37.787876 -0700,
GR_Congruent_GreenCue_GreenProbe_Top,GreenGaborBoth.png,RedGaborBoth.png,GreenGaborDisappearTop.png,RedGaborBoth.png,Green.mp3,green,top,95,15,1,,,,1,15,95,34,1741.675779875,,,,,,,,,,,,,,,,top,,,,,,,,1741.663424459,1742.2761259170002,1742.2762900840003,1747.525955084,1747.535012292,1748.775828542,1748.7780386250001,1749.992901084,1749.994316875,1750.9099958340003,allgreen,FinalRedContrast,FinalGreenContrast,1750.911323875,1751.576639334,3,260508gh,001,2026-05-08_14h18.37.454,priming,,2026.1.3,59.89648402126582,2026-05-08 14h18.37.787876 -0700,
GR_Incongruent_RedCue_GreenProbe_Top,GreenGaborBoth.png,RedGaborBoth.png,GreenGaborDisappearTop.png,RedGaborBoth.png,Red.mp3,red,top,96,16,1,,,,1,16,96,28,1751.5925406670003,,,,,,,,,,,,,,,,top,,,,,,,,1751.578557625,1752.642853584,1752.6430248750003,1757.892513542,1757.9024452920003,1759.142614667,1759.144571709,1760.1105162090003,1760.111243459,1761.1934404170001,mostlygreen,FinalRedContrast,FinalGreenContrast,1761.194716167,1763.976768084,3,260508gh,001,2026-05-08_14h18.37.454,priming,,2026.1.3,59.89648402126582,2026-05-08 14h18.37.787876 -0700,
GR_Incongruent_GreenCue_RedProbe_Bottom,GreenGaborBoth.png,RedGaborBoth.png,GreenGaborBoth.png,RedGaborDisappearBottom.png,Green.mp3,green,bottom,97,17,1,,,,1,17,97,31,1763.9925605420003,,,,,,,,,,,,,,,,bottom,,,,,,,,1763.979052917,1767.2929265840003,1767.2931172500003,1772.542688125,1772.5539804170003,1773.792693375,1773.7946913340002,1775.2764366670003,1775.2778801250001,1776.160143084,mostlygreen,FinalRedContrast,FinalGreenContrast,1776.161588334,1777.6100820840002,3,260508gh,001,2026-05-08_14h18.37.454,priming,,2026.1.3,59.89648402126582,2026-05-08 14h18.37.787876 -0700,
GR_Congruent_RedCue_RedProbe_Bottom,GreenGaborBoth.png,RedGaborBoth.png,GreenGaborBoth.png,RedGaborDisappearBottom.png,Red.mp3,red,bottom,98,18,1,,,,1,18,98,57,1777.625796375,,,,,,,,,,,,,,,,bottom,,,,,,,,1777.6141643750002,1790.645357375,1790.645623209,1795.892731,1795.9052497500002,1797.1427590000003,1797.144426542,1798.026538917,1798.02789175,1799.543694209,mostlyred,FinalRedContrast,FinalGreenContrast,1799.544056959,1801.093575209,3,260508gh,001,2026-05-08_14h18.37.454,priming,,2026.1.3,59.89648402126582,2026-05-08 14h18.37.787876 -0700,
GR_Congruent_GreenCue_GreenProbe_Top,GreenGaborBoth.png,RedGaborBoth.png,GreenGaborDisappearTop.png,RedGaborBoth.png,Green.mp3,green,top,99,19,1,,,,1,19,99,26,1801.109360459,,,,,,,,,,,,,,,,top,,,,,,,,1801.0965672920001,1803.72645225,1803.7266183340002,1808.976084084,1808.985112167,1810.226027917,1810.2279158340002,1811.7599223750003,1811.761181459,1813.126951792,evensplit,FinalRedContrast,FinalGreenContrast,1813.1282474590002,1814.2602345,3,260508gh,001,2026-05-08_14h18.37.454,priming,,2026.1.3,59.89648402126582,2026-05-08 14h18.37.787876 -0700,
GR_Congruent_GreenCue_GreenProbe_Bottom,GreenGaborBoth.png,RedGaborBoth.png,GreenGaborDisappearBottom.png,RedGaborBoth.png,Green.mp3,green,bottom,100,20,1,,,,1,20,100,3,1814.2759902920002,,,,,,,,,,,,,,,,bottom,,,,,,,,1814.2603897920003,1816.8768155000002,1816.876990459,1822.1261023340003,1822.136163917,1823.376081209,1823.378000959,1824.026563625,1824.0282540000003,1825.260210167,allgreen,FinalRedContrast,FinalGreenContrast,1825.2616789170002,1826.427003959,3,260508gh,001,2026-05-08_14h18.37.454,priming,,2026.1.3,59.89648402126582,2026-05-08 14h18.37.787876 -0700,
GR_Incongruent_GreenCue_RedProbe_Top,GreenGaborBoth.png,RedGaborBoth.png,GreenGaborBoth.png,RedGaborDisappearTop.png,Green.mp3,green,top,101,21,1,,,,1,21,101,70,1826.44271625,,,,,,,,,,,,,,,,top,,,,,,,,1826.427141959,1828.9153621670002,1828.9155503340003,1834.159573542,1834.1694084170003,1835.4096075000002,1835.411384209,1836.093305167,1836.0948975000001,1838.343677459,mostlygreen,FinalRedContrast,FinalGreenContrast,1838.344475167,1839.7271031670002,3,260508gh,001,2026-05-08_14h18.37.454,priming,,2026.1.3,59.89648402126582,2026-05-08 14h18.37.787876 -0700,
GR_Congruent_GreenCue_GreenProbe_Bottom,GreenGaborBoth.png,RedGaborBoth.png,GreenGaborDisappearBottom.png,RedGaborBoth.png,Green.mp3,green,bottom,102,22,1,,,,1,22,102,51,1839.7428936670003,,,,,,,,,,,,,,,,bottom,,,,,,,,1839.727335084,1841.20993425,1841.210104667,1846.459706834,1846.4692303340003,1847.709532417,1847.7113491670002,1849.176701209,1849.17842375,1850.6270800840002,evensplit,FinalRedContrast,FinalGreenContrast,1850.6279369590002,1852.9605187500001,3,260508gh,001,2026-05-08_14h18.37.454,priming,,2026.1.3,59.89648402126582,2026-05-08 14h18.37.787876 -0700,
RR_non_riv_catch_RedCue_RedProbe_Bottom,Blank.png,RedGaborBoth.png,Blank.png,RedGaborDisappearBottom.png,Red.mp3,red,bottom,103,23,1,,,,1,23,103,73,1852.976147584,,,,,,,,,,,,,,,,bottom,,,,,,,,1852.9637776670002,1854.9099415,1854.9101166250002,1860.1595709590001,1860.16703,1861.4095378340003,1861.4112931250002,1863.0433415420002,1863.0447369590001,1863.6437205000002,allred,FinalRedContrast,FinalGreenContrast,1863.645016209,1864.5937438750002,3,260508gh,001,2026-05-08_14h18.37.454,priming,,2026.1.3,59.89648402126582,2026-05-08 14h18.37.787876 -0700,
GR_Congruent_RedCue_RedProbe_Top,GreenGaborBoth.png,RedGaborBoth.png,GreenGaborBoth.png,RedGaborDisappearTop.png,Red.mp3,red,top,104,24,1,,,,1,24,104,32,1864.609482167,,,,,,,,,,,,,,,,top,,,,,,,,1864.5938713340001,1871.21000775,1871.2101764590002,1876.4596835420002,1876.4688664170003,1877.709760625,1877.711513625,1878.4101204170001,1878.411781459,1879.5938113750003,allred,FinalRedContrast,FinalGreenContrast,1879.595038292,1881.327137542,3,260508gh,001,2026-05-08_14h18.37.454,priming,,2026.1.3,59.89648402126582,2026-05-08 14h18.37.787876 -0700,
GR_Congruent_RedCue_RedProbe_Top,GreenGaborBoth.png,RedGaborBoth.png,GreenGaborBoth.png,RedGaborDisappearTop.png,Red.mp3,red,top,105,25,1,,,,1,25,105,24,1881.342906334,,,,,,,,,,,,,,,,top,,,,,,,,1881.327388834,1882.3433192090001,1882.343484084,1887.593122459,1887.601256209,1888.843129375,1888.845050459,1889.4600931670002,1889.4616637920003,1891.6774097090001,mostlyred,FinalRedContrast,FinalGreenContrast,1891.677813417,1892.7272563340002,4,260508gh,001,2026-05-08_14h18.37.454,priming,,2026.1.3,59.89648402126582,2026-05-08 14h18.37.787876 -0700,
GR_Incongruent_GreenCue_RedProbe_Bottom,GreenGaborBoth.png,RedGaborBoth.png,GreenGaborBoth.png,RedGaborDisappearBottom.png,Green.mp3,green,bottom,106,26,1,,,,1,26,106,71,1892.742925167,,,,,,,,,,,,,,,,bottom,,,,,,,,1892.73086925,1893.726742292,1893.726907417,1898.9765094590002,1898.9860587090002,1900.2263498340003,1900.2280782500002,1901.36342525,1901.363770084,1902.560494292,mostlygreen,FinalRedContrast,FinalGreenContrast,1902.5614741670001,1903.327426417,3,260508gh,001,2026-05-08_14h18.37.454,priming,,2026.1.3,59.89648402126582,2026-05-08 14h18.37.787876 -0700,
GR_Incongruent_RedCue_GreenProbe_Top,GreenGaborBoth.png,RedGaborBoth.png,GreenGaborDisappearTop.png,RedGaborBoth.png,Red.mp3,red,top,107,27,1,,,,1,27,107,60,1903.3431029590001,,,,,,,,,,,,,,,,top,,,,,,,,1903.3295415420002,1904.0604747500001,1904.0606617090002,1909.309783959,1909.319082292,1910.559797542,1910.5618238340003,1912.643593334,1912.6451432090003,1915.2773201250002,evensplit,FinalRedContrast,FinalGreenContrast,1915.2781837090001,1915.927351792,3,260508gh,001,2026-05-08_14h18.37.454,priming,,2026.1.3,59.89648402126582,2026-05-08 14h18.37.787876 -0700,
GR_Incongruent_RedCue_GreenProbe_Top,GreenGaborBoth.png,RedGaborBoth.png,GreenGaborDisappearTop.png,RedGaborBoth.png,Red.mp3,red,top,108,28,1,,,,1,28,108,68,1915.9430348340002,,,,,,,,,,,,,,,,top,,,,,,,,1915.9276224590003,1916.4100868340001,1916.410278417,1921.6598396250001,1921.6696917500003,1922.9100467500002,1922.912593167,1923.960214667,1923.9621096250003,1924.9440529170001,mostlygreen,FinalRedContrast,FinalGreenContrast,1924.94474725,1925.7773245840003,3,260508gh,001,2026-05-08_14h18.37.454,priming,,2026.1.3,59.89648402126582,2026-05-08 14h18.37.787876 -0700,
GR_Incongruent_RedCue_GreenProbe_Top,GreenGaborBoth.png,RedGaborBoth.png,GreenGaborDisappearTop.png,RedGaborBoth.png,Red.mp3,red,top,109,29,1,,,,1,29,109,44,1925.793053125,,,,,,,,,,,,,,,,top,,,,,,,,1925.777537417,1927.610118084,1927.6103278750002,1932.8598084170003,1932.8704550000002,1934.1098282920002,1934.1116815,1934.64355875,1934.645234,1935.1123685420002,evensplit,FinalRedContrast,FinalGreenContrast,1935.1126356250002,1936.0605905420002,3,260508gh,001,2026-05-08_14h18.37.454,priming,,2026.1.3,59.89648402126582,2026-05-08 14h18.37.787876 -0700,
GR_Incongruent_GreenCue_RedProbe_Bottom,GreenGaborBoth.png,RedGaborBoth.png,GreenGaborBoth.png,RedGaborDisappearBottom.png,Green.mp3,green,bottom,110,30,1,,,,1,30,110,63,1936.0763745,,,,,,,,,,,,,,,,bottom,,,,,,,,1936.0633498750003,1937.19343625,1937.1936046250003,1942.443324417,1942.4533247500003,1943.6933102920002,1943.6965721670003,1944.4604865420001,1944.4616728340002,1946.461176375,mostlygreen,FinalRedContrast,FinalGreenContrast,1946.461780042,1947.3941600000003,3,260508gh,001,2026-05-08_14h18.37.454,priming,,2026.1.3,59.89648402126582,2026-05-08 14h18.37.787876 -0700,
GG_non_riv_catch_RedCue_GreenProbe_Bottom,GreenGaborBoth.png,Blank.png,GreenGaborDisappearBottom.png,Blank.png,Red.mp3,red,bottom,111,31,1,,,,1,31,111,77,1947.4098329170001,,,,,,,,,,,,,,,,bottom,,,,,,,,1947.396802584,1948.46065275,1948.460833959,1953.7100462090002,1953.718347042,1954.9599028340003,1954.9618030420002,1957.177069167,1957.178811667,1958.278020584,allgreen,FinalRedContrast,FinalGreenContrast,1958.2784234170003,1958.9442037500003,3,260508gh,001,2026-05-08_14h18.37.454,priming,,2026.1.3,59.89648402126582,2026-05-08 14h18.37.787876 -0700,
GR_Congruent_GreenCue_GreenProbe_Bottom,GreenGaborBoth.png,RedGaborBoth.png,GreenGaborDisappearBottom.png,RedGaborBoth.png,Green.mp3,green,bottom,112,32,1,,,,1,32,112,19,1958.959858625,,,,,,,,,,,,,,,,bottom,,,,,,,,1958.9462695840002,1960.810219375,1960.8103864590003,1966.059992292,1966.068446959,1967.3099149170002,1967.3116744170002,1968.1103909170001,1968.1120097920002,1972.177544875,evensplit,FinalRedContrast,FinalGreenContrast,1972.178871834,1977.210902709,3,260508gh,001,2026-05-08_14h18.37.454,priming,,2026.1.3,59.89648402126582,2026-05-08 14h18.37.787876 -0700,
GR_Congruent_GreenCue_GreenProbe_Bottom,GreenGaborBoth.png,RedGaborBoth.png,GreenGaborDisappearBottom.png,RedGaborBoth.png,Green.mp3,green,bottom,113,33,1,,,,1,33,113,43,1977.2266532090002,,,,,,,,,,,,,,,,bottom,,,,,,,,1977.2111879590002,1978.8603991250002,1978.8605912090002,1984.110046875,1984.119163292,1985.360065334,1985.362184875,1986.827303209,1986.828967417,1988.377610084,mostlygreen,FinalRedContrast,FinalGreenContrast,1988.3788006250002,1991.4275416670002,3,260508gh,001,2026-05-08_14h18.37.454,priming,,2026.1.3,59.89648402126582,2026-05-08 14h18.37.787876 -0700,
GR_Incongruent_GreenCue_RedProbe_Bottom,GreenGaborBoth.png,RedGaborBoth.png,GreenGaborBoth.png,RedGaborDisappearBottom.png,Green.mp3,green,bottom,114,34,1,,,,1,34,114,15,1991.4433774170002,,,,,,,,,,,,,,,,bottom,,,,,,,,1991.4278355840001,1994.243721334,1994.2439038340003,1999.4934628750002,1999.502446042,2000.743383334,2000.745196709,2001.4271414590003,2001.428825084,2002.8109237920003,evensplit,FinalRedContrast,FinalGreenContrast,2002.812210167,2003.410964792,3,260508gh,001,2026-05-08_14h18.37.454,priming,,2026.1.3,59.89648402126582,2026-05-08 14h18.37.787876 -0700,
GR_Congruent_RedCue_RedProbe_Top,GreenGaborBoth.png,RedGaborBoth.png,GreenGaborBoth.png,RedGaborDisappearTop.png,Red.mp3,red,top,115,35,1,,,,1,35,115,40,2003.426682875,,,,,,,,,,,,,,,,top,,,,,,,,2003.4145348340003,2004.1770535,2004.1772275840003,2009.4267367920002,2009.434910459,2010.6767666250003,2010.678626584,2011.177242584,2011.178469125,2012.844409459,evensplit,FinalRedContrast,FinalGreenContrast,2012.845225125,2013.661126334,3,260508gh,001,2026-05-08_14h18.37.454,priming,,2026.1.3,59.89648402126582,2026-05-08 14h18.37.787876 -0700,
GR_Incongruent_RedCue_GreenProbe_Bottom,GreenGaborBoth.png,RedGaborBoth.png,GreenGaborDisappearBottom.png,RedGaborBoth.png,Red.mp3,red,bottom,116,36,1,,,,1,36,116,53,2013.6768070000003,,,,,,,,,,,,,,,,bottom,,,,,,,,2013.661235959,2014.4438667920003,2014.44403525,2019.693612,2019.703819292,2020.9435383750001,2020.945338084,2022.194004209,2022.1958126670002,2023.54436825,mostlygreen,FinalRedContrast,FinalGreenContrast,2023.545633584,2024.611006875,3,260508gh,001,2026-05-08_14h18.37.454,priming,,2026.1.3,59.89648402126582,2026-05-08 14h18.37.787876 -0700,
RR_non_riv_catch_GreenCue_RedProbe_Top,Blank.png,RedGaborBoth.png,Blank.png,RedGaborDisappearTop.png,Green.mp3,green,top,117,37,1,,,,1,37,117,74,2024.6267565000003,,,,,,,,,,,,,,,,top,,,,,,,,2024.613901709,2026.7272002090003,2026.727388459,2031.97689425,2031.984384584,2033.226888792,2033.229987959,2033.695325834,2033.6956005840002,2034.6443371670002,allred,FinalRedContrast,FinalGreenContrast,2034.645686375,2035.7776773340001,3,260508gh,001,2026-05-08_14h18.37.454,priming,,2026.1.3,59.89648402126582,2026-05-08 14h18.37.787876 -0700,
GG_non_riv_catch_RedCue_GreenProbe_Top,GreenGaborBoth.png,Blank.png,GreenGaborDisappearTop.png,Blank.png,Red.mp3,red,top,118,38,1,,,,1,38,118,76,2035.793439084,,,,,,,,,,,,,,,,top,,,,,,,,2035.7796200840003,2036.410501792,2036.410676167,2041.6601862090001,2041.6673217500002,2042.9101933340003,2042.9122661670003,2043.9772442500002,2043.9792415000002,2044.811025,allgreen,FinalRedContrast,FinalGreenContrast,2044.8122441250002,2045.9111270840003,3,260508gh,001,2026-05-08_14h18.37.454,priming,,2026.1.3,59.89648402126582,2026-05-08 14h18.37.787876 -0700,
GR_Incongruent_RedCue_GreenProbe_Top,GreenGaborBoth.png,RedGaborBoth.png,GreenGaborDisappearTop.png,RedGaborBoth.png,Red.mp3,red,top,119,39,1,,,,1,39,119,36,2045.926788584,,,,,,,,,,,,,,,,top,,,,,,,,2045.9113763340001,2046.593843792,2046.5940205420002,2051.843735709,2051.8536195,2053.093695542,2053.095530167,2054.8774483340003,2054.879145417,2056.078016292,evensplit,FinalRedContrast,FinalGreenContrast,2056.078630209,2057.0780775420003,3,260508gh,001,2026-05-08_14h18.37.454,priming,,2026.1.3,59.89648402126582,2026-05-08 14h18.37.787876 -0700,
GR_Congruent_RedCue_RedProbe_Bottom,GreenGaborBoth.png,RedGaborBoth.png,GreenGaborBoth.png,RedGaborDisappearBottom.png,Red.mp3,red,bottom,120,40,1,,,,1,40,120,25,2057.093584917,,,,,,,,,,,,,,,,bottom,,,,,,,,2057.0782320420003,2058.4439674170003,2058.4441446670003,2063.693649709,2063.703406167,2064.943659334,2064.945614542,2066.994131459,2066.9959293340003,2067.444452542,evensplit,FinalRedContrast,FinalGreenContrast,2067.445798584,2069.227889417,3,260508gh,001,2026-05-08_14h18.37.454,priming,,2026.1.3,59.89648402126582,2026-05-08 14h18.37.787876 -0700,
GR_Congruent_GreenCue_GreenProbe_Top,GreenGaborBoth.png,RedGaborBoth.png,GreenGaborDisappearTop.png,RedGaborBoth.png,Green.mp3,green,top,121,41,1,,,,1,41,121,66,2069.2435623750002,,,,,,,,,,,,,,,,top,,,,,,,,2069.2306024590002,2069.827303542,2069.827472584,2075.0769960000002,2075.085662167,2076.3269987920003,2076.328882834,2076.894089084,2076.8958646250003,2077.7112795000003,evensplit,FinalRedContrast,FinalGreenContrast,2077.7117415000002,2078.5612085840003,3,260508gh,001,2026-05-08_14h18.37.454,priming,,2026.1.3,59.89648402126582,2026-05-08 14h18.37.787876 -0700,
GR_Congruent_RedCue_RedProbe_Top,GreenGaborBoth.png,RedGaborBoth.png,GreenGaborBoth.png,RedGaborDisappearTop.png,Red.mp3,red,top,122,42,1,,,,1,42,122,16,2078.576893417,,,,,,,,,,,,,,,,top,,,,,,,,2078.563128709,2080.343971959,2080.344137042,2085.593819125,2085.60212675,2086.843817417,2086.845629,2087.427567125,2087.42889025,2088.444621209,evensplit,FinalRedContrast,FinalGreenContrast,2088.445835042,2089.245007667,3,260508gh,001,2026-05-08_14h18.37.454,priming,,2026.1.3,59.89648402126582,2026-05-08 14h18.37.787876 -0700,
GR_Incongruent_GreenCue_RedProbe_Top,GreenGaborBoth.png,RedGaborBoth.png,GreenGaborBoth.png,RedGaborDisappearTop.png,Green.mp3,green,top,123,43,1,,,,1,43,123,6,2089.2603976670002,,,,,,,,,,,,,,,,top,,,,,,,,2089.247680042,2090.2443012090002,2090.24448575,2095.4937721250003,2095.503168,2096.743760834,2096.745535584,2097.2444825420002,2097.245297334,2099.494605834,evensplit,FinalRedContrast,FinalGreenContrast,2099.495990084,2100.877951417,3,260508gh,001,2026-05-08_14h18.37.454,priming,,2026.1.3,59.89648402126582,2026-05-08 14h18.37.787876 -0700,
GR_Congruent_RedCue_RedProbe_Top,GreenGaborBoth.png,RedGaborBoth.png,GreenGaborBoth.png,RedGaborDisappearTop.png,Red.mp3,red,top,124,44,1,,,,1,44,124,0,2100.8937015,,,,,,,,,,,,,,,,top,,,,,,,,2100.879859,2101.610731,2101.6109017920003,2106.860425167,2106.8688705,2108.1104584170002,2108.112312875,2109.410929,2109.412259084,2111.561396959,mostlyred,FinalRedContrast,FinalGreenContrast,2111.562239292,2112.678007625,3,260508gh,001,2026-05-08_14h18.37.454,priming,,2026.1.3,59.89648402126582,2026-05-08 14h18.37.787876 -0700,
GR_Incongruent_GreenCue_RedProbe_Top,GreenGaborBoth.png,RedGaborBoth.png,GreenGaborBoth.png,RedGaborDisappearTop.png,Green.mp3,green,top,125,45,1,,,,1,45,125,38,2112.693715667,,,,,,,,,,,,,,,,top,,,,,,,,2112.681170292,2113.8611382500003,2113.8613261670002,2119.110440167,2119.11903225,2120.360443042,2120.362344042,2120.8942649590003,2120.8953945000003,2122.211390084,evensplit,FinalRedContrast,FinalGreenContrast,2122.212206709,2123.094835834,3,260508gh,001,2026-05-08_14h18.37.454,priming,,2026.1.3,59.89648402126582,2026-05-08 14h18.37.787876 -0700,
GR_Incongruent_GreenCue_RedProbe_Top,GreenGaborBoth.png,RedGaborBoth.png,GreenGaborBoth.png,RedGaborDisappearTop.png,Green.mp3,green,top,126,46,1,,,,1,46,126,54,2123.1105122090003,,,,,,,,,,,,,,,,top,,,,,,,,2123.0949693340003,2124.344316834,2124.3445475840003,2129.5939320420002,2129.6045668750003,2130.843926542,2130.845966167,2131.42773025,2131.4293887500003,2132.328059,evensplit,FinalRedContrast,FinalGreenContrast,2132.329489584,2133.644742834,3,260508gh,001,2026-05-08_14h18.37.454,priming,,2026.1.3,59.89648402126582,2026-05-08 14h18.37.787876 -0700,
GR_Incongruent_RedCue_GreenProbe_Bottom,GreenGaborBoth.png,RedGaborBoth.png,GreenGaborDisappearBottom.png,RedGaborBoth.png,Red.mp3,red,bottom,127,47,1,,,,1,47,127,5,2133.6604754590003,,,,,,,,,,,,,,,,bottom,,,,,,,,2133.648202625,2134.0276281250003,2134.0277960840003,2139.277343792,2139.286535584,2140.5272302920002,2140.529149792,2141.1610249170003,2141.162643875,2142.5947541670002,evensplit,FinalRedContrast,FinalGreenContrast,2142.596042667,2143.461746334,3,260508gh,001,2026-05-08_14h18.37.454,priming,,2026.1.3,59.89648402126582,2026-05-08 14h18.37.787876 -0700,
GR_Congruent_RedCue_RedProbe_Top,GreenGaborBoth.png,RedGaborBoth.png,GreenGaborBoth.png,RedGaborDisappearTop.png,Red.mp3,red,top,128,48,1,,,,1,48,128,64,2143.4771475000002,,,,,,,,,,,,,,,,bottom,,,,,,,,2143.461916959,2151.3443270840003,2151.344544459,2156.59386925,2156.604361625,2157.843899709,2157.8459456250002,2158.694446459,2158.695355917,2160.478219,mostlyred,FinalRedContrast,FinalGreenContrast,2160.47939875,2161.6615325840003,3,260508gh,001,2026-05-08_14h18.37.454,priming,,2026.1.3,59.89648402126582,2026-05-08 14h18.37.787876 -0700,
GR_Incongruent_RedCue_GreenProbe_Bottom,GreenGaborBoth.png,RedGaborBoth.png,GreenGaborDisappearBottom.png,RedGaborBoth.png,Red.mp3,red,bottom,129,49,1,,,,1,49,129,37,2161.677308625,,,,,,,,,,,,,,,,bottom,,,,,,,,2161.661953834,2162.7276756670003,2162.7278810000003,2167.977326125,2167.986053167,2169.227407792,2169.229480334,2170.115488625,2170.115811125,2171.178164125,mostlygreen,FinalRedContrast,FinalGreenContrast,2171.1795177500003,2172.011517,3,260508gh,001,2026-05-08_14h18.37.454,priming,,2026.1.3,59.89648402126582,2026-05-08 14h18.37.787876 -0700,
GR_Incongruent_RedCue_GreenProbe_Top,GreenGaborBoth.png,RedGaborBoth.png,GreenGaborDisappearTop.png,RedGaborBoth.png,Red.mp3,red,top,130,50,1,,,,1,50,130,52,2172.027273209,,,,,,,,,,,,,,,,top,,,,,,,,2172.0116807500003,2172.8943912090003,2172.894566,2178.1441035420003,2178.1522869590003,2179.394127334,2179.395836959,2179.927926375,2179.928849125,2180.644897292,allgreen,FinalRedContrast,FinalGreenContrast,2180.6463563340003,2181.461649917,3,260508gh,001,2026-05-08_14h18.37.454,priming,,2026.1.3,59.89648402126582,2026-05-08 14h18.37.787876 -0700,
GR_Incongruent_GreenCue_RedProbe_Top,GreenGaborBoth.png,RedGaborBoth.png,GreenGaborBoth.png,RedGaborDisappearTop.png,Green.mp3,green,top,131,51,1,,,,1,51,131,14,2181.477285084,,,,,,,,,,,,,,,,top,,,,,,,,2181.464608875,2182.394327584,2182.3944931250003,2187.644041042,2187.6535466670002,2188.894055,2188.896001375,2190.0611628750003,2190.062521834,2190.744844459,allgreen,FinalRedContrast,FinalGreenContrast,2190.746217625,2191.478294167,4,260508gh,001,2026-05-08_14h18.37.454,priming,,2026.1.3,59.89648402126582,2026-05-08 14h18.37.787876 -0700,
GR_Congruent_RedCue_RedProbe_Top,GreenGaborBoth.png,RedGaborBoth.png,GreenGaborBoth.png,RedGaborDisappearTop.png,Red.mp3,red,top,132,52,1,,,,1,52,132,8,2191.4940164170002,,,,,,,,,,,,,,,,top,,,,,,,,2191.4803999170003,2192.327693625,2192.327860625,2197.577468417,2197.5861291250003,2198.827591834,2198.829557,2199.711344917,2199.7119204170003,2200.528392542,evensplit,FinalRedContrast,FinalGreenContrast,2200.529410959,2201.3949363340002,3,260508gh,001,2026-05-08_14h18.37.454,priming,,2026.1.3,59.89648402126582,2026-05-08 14h18.37.787876 -0700,
GR_Congruent_RedCue_RedProbe_Bottom,GreenGaborBoth.png,RedGaborBoth.png,GreenGaborBoth.png,RedGaborDisappearBottom.png,Red.mp3,red,bottom,133,53,1,,,,1,53,133,49,2201.410753125,,,,,,,,,,,,,,,,bottom,,,,,,,,2201.395045959,2202.594501334,2202.594667709,2207.844382625,2207.852073459,2209.0941847500003,2209.095783,2210.044787417,2210.0455935,2211.228381917,evensplit,FinalRedContrast,FinalGreenContrast,2211.2293761670003,2212.4283921250003,3,260508gh,001,2026-05-08_14h18.37.454,priming,,2026.1.3,59.89648402126582,2026-05-08 14h18.37.787876 -0700,
GR_Incongruent_RedCue_GreenProbe_Bottom,GreenGaborBoth.png,RedGaborBoth.png,GreenGaborDisappearBottom.png,RedGaborBoth.png,Red.mp3,red,bottom,134,54,1,,,,1,54,134,69,2212.44418675,,,,,,,,,,,,,,,,bottom,,,,,,,,2212.428506959,2213.461197792,2213.4613615840003,2218.710906292,2218.71841575,2219.960941459,2219.962545875,2220.544645209,2220.546113584,2222.461831959,mostlyred,FinalRedContrast,FinalGreenContrast,2222.462098709,2223.295095792,2,260508gh,001,2026-05-08_14h18.37.454,priming,,2026.1.3,59.89648402126582,2026-05-08 14h18.37.787876 -0700,
RR_non_riv_catch_RedCue_RedProbe_Top,Blank.png,RedGaborBoth.png,Blank.png,RedGaborDisappearTop.png,Red.mp3,red,top,135,55,1,,,,1,55,135,72,2223.31085875,,,,,,,,,,,,,,,,top,,,,,,,,2223.295199667,2224.3445655,2224.3447287090003,2229.5941525000003,2229.601334625,2230.8443780420002,2230.845565,2231.311456125,2231.312381084,2232.745148542,allred,FinalRedContrast,FinalGreenContrast,2232.7463849170003,2233.845210084,3,260508gh,001,2026-05-08_14h18.37.454,priming,,2026.1.3,59.89648402126582,2026-05-08 14h18.37.787876 -0700,
GR_Incongruent_GreenCue_RedProbe_Bottom,GreenGaborBoth.png,RedGaborBoth.png,GreenGaborBoth.png,RedGaborDisappearBottom.png,Green.mp3,green,bottom,136,56,1,,,,1,56,136,23,2233.860929334,,,,,,,,,,,,,,,,bottom,,,,,,,,2233.847269584,2235.1279290420002,2235.128096292,2240.377652792,2240.3857256250003,2241.627705084,2241.629356625,2242.22807475,2242.229387542,2243.34512975,allgreen,FinalRedContrast,FinalGreenContrast,2243.346232084,2244.995240042,3,260508gh,001,2026-05-08_14h18.37.454,priming,,2026.1.3,59.89648402126582,2026-05-08 14h18.37.787876 -0700,
