label,LstartingStim,RstartingStim,LvisualStim,RvisualStim,audioCue,visualCue,probe_loc,thisN,thisTrialN,thisRepN,staircase.thisTrialN,staircase.stepSize,staircase.intensity,trials.thisRepN,trials.thisTrialN,trials.thisN,trials.thisIndex,thisRow.t,notes,piloting,stim offset,continue_resp.keys,continue_resp.rt,continue_resp.duration,fixation.started,fixation.stopped,greenContrast,redContrast,adjusted_contrast.started,adjusted_contrast.stopped,staircase_response.started,staircase_response.stopped,stair_response,probe_response,staircase.response,prevTrial,isRed,isReversal,cumReversal,contrastArray,contrastAverage,start_trial.started,start_trial.stopped,cue.started,cue.stopped,probe.started,probe.stopped,probe_response.started,probe_response.stopped,subjective_response.started,subjective_response.stopped,subj_response,RedContrast,GreenContrast,vividness_response.started,vividness_response.stopped,vivid_response,participant,session,date,expName,expVersion,psychopyVersion,frameRate,expStart,
,,,,,,,,,,,,,,,,,,,,False,0.32399999999999995,,,,,,,,,,,,,,,,,,,,,,,,,,,,,,,,,,,,,260506bl,001,2026-05-06_16h23.29.259,priming,,2026.1.3,60.01290289414831,2026-05-06 16h23.29.772513 -0700,
,,,,,,,,,,,,,,,,,,,,,,space,16.845323833000066,None,,,,,,,,,,,,,,,,,,,,,,,,,,,,,,,,,,260506bl,001,2026-05-06_16h23.29.259,priming,,2026.1.3,60.01290289414831,2026-05-06 16h23.29.772513 -0700,
,,,,,,,,,,,0,0.2,0.5,,,,,26.7386456669999,,,,,,,26.723483708999993,27.722092749999888,0.5,0.5,27.72890904199994,29.47216812499994,29.47757766699999,43.68965445899994,allred,red,1,1000,1,0,0,[],0,,,,,,,,,,,,,,,,,260506bl,001,2026-05-06_16h23.29.259,priming,,2026.1.3,60.01290289414831,2026-05-06 16h23.29.772513 -0700,
,,,,,,,,,,,1,0.1,0.3,,,,,43.705478833999905,,,,,,,43.6899243339999,44.68893779199993,0.7,0.3,44.69380958399995,46.438958125,46.440668624999944,63.339622499999905,allgreen,green,0,1,0,1,1,[],0,,,,,,,,,,,,,,,,,260506bl,001,2026-05-06_16h23.29.259,priming,,2026.1.3,60.01290289414831,2026-05-06 16h23.29.772513 -0700,
,,,,,,,,,,,2,0.1,0.4,,,,,63.355562291999945,,,,,,,63.339865749999944,64.33896424999989,0.6,0.4,64.34398395899996,66.08895499999994,66.0906773339999,68.08961391699995,mostlyred,red,1,0,1,1,2,[],0,,,,,,,,,,,,,,,,,260506bl,001,2026-05-06_16h23.29.259,priming,,2026.1.3,60.01290289414831,2026-05-06 16h23.29.772513 -0700,
,,,,,,,,,,,3,0.05,0.30000000000000004,,,,,68.10552641699996,,,,,,,68.08992991699995,69.08883883399994,0.7,0.30000000000000004,69.09223608399998,70.83904483399999,70.84068287499997,120.68992412499995,mostlygreen,green,0,1,0,1,3,[],0,,,,,,,,,,,,,,,,,260506bl,001,2026-05-06_16h23.29.259,priming,,2026.1.3,60.01290289414831,2026-05-06 16h23.29.772513 -0700,
,,,,,,,,,,,4,0.05,0.35000000000000003,,,,,120.70579083399991,,,,,,,120.69017399999996,121.68927612499999,0.6499999999999999,0.35000000000000003,121.69285437499991,123.439204959,123.440583834,126.6064964169999,mostlygreen,green,0,0,0,0,3,[],0,,,,,,,,,,,,,,,,,260506bl,001,2026-05-06_16h23.29.259,priming,,2026.1.3,60.01290289414831,2026-05-06 16h23.29.772513 -0700,
,,,,,,,,,,,5,0.05,0.4,,,,,126.62248629199996,,,,,,,126.60674120899989,127.60589129199991,0.6,0.4,127.609448875,129.3558577089999,129.35716720899995,130.25681904199996,allgreen,green,0,0,0,0,3,[],0,,,,,,,,,,,,,,,,,260506bl,001,2026-05-06_16h23.29.259,priming,,2026.1.3,60.01290289414831,2026-05-06 16h23.29.772513 -0700,
,,,,,,,,,,,6,0.05,0.45,,,,,130.272438084,,,,,,,130.2570680839999,131.25589191699999,0.55,0.45,131.2594053339999,133.0058029999999,133.00791279199996,136.24033808399997,mostlygreen,green,0,0,0,0,3,[],0,,,,,,,,,,,,,,,,,260506bl,001,2026-05-06_16h23.29.259,priming,,2026.1.3,60.01290289414831,2026-05-06 16h23.29.772513 -0700,
,,,,,,,,,,,7,0.05,0.5,,,,,136.25575941699992,,,,,,,136.24059295899997,137.23933595899996,0.5,0.5,137.24276333399996,138.9892561669999,138.99067187499998,142.340055334,mostlyred,red,1,0,1,1,4,[],0,,,,,,,,,,,,,,,,,260506bl,001,2026-05-06_16h23.29.259,priming,,2026.1.3,60.01290289414831,2026-05-06 16h23.29.772513 -0700,
,,,,,,,,,,,8,0.05,0.45,,,,,142.35592337499997,,,,,,,142.3403730419999,143.33926741699997,0.55,0.45,143.3427479589999,145.08929016699994,145.09092424999994,147.77336716699995,mostlyred,red,1,1,1,0,4,[],0,,,,,,,,,,,,,,,,,260506bl,001,2026-05-06_16h23.29.259,priming,,2026.1.3,60.01290289414831,2026-05-06 16h23.29.772513 -0700,
,,,,,,,,,,,9,0.05,0.4,,,,,147.78932175,,,,,,,147.7736112089999,148.77267533399993,0.6,0.4,148.77613374999999,150.52261462499996,150.5243627089999,152.68997524999997,mostlyred,red,1,1,1,0,4,[],0,,,,,,,,,,,,,,,,,260506bl,001,2026-05-06_16h23.29.259,priming,,2026.1.3,60.01290289414831,2026-05-06 16h23.29.772513 -0700,
,,,,,,,,,,,10,0.025,0.35000000000000003,,,,,152.7058119169999,,,,,,,152.690218792,153.6892449589999,0.6499999999999999,0.35000000000000003,153.692598375,155.43937374999996,155.44081674999995,158.489967042,mostlygreen,green,0,1,0,1,5,[],0,,,,,,,,,,,,,,,,,260506bl,001,2026-05-06_16h23.29.259,priming,,2026.1.3,60.01290289414831,2026-05-06 16h23.29.772513 -0700,
,,,,,,,,,,,11,0.025,0.37500000000000006,,,,,158.50594212499993,,,,,,,158.4902162919999,159.489236334,0.625,0.37500000000000006,159.49266349999994,161.239215167,161.24077658399995,163.139950334,mostlygreen,green,0,0,0,0,5,[],0,,,,,,,,,,,,,,,,,260506bl,001,2026-05-06_16h23.29.259,priming,,2026.1.3,60.01290289414831,2026-05-06 16h23.29.772513 -0700,
,,,,,,,,,,,12,0.025,0.4000000000000001,,,,,163.15589049999994,,,,,,,163.140193459,164.1393684589999,0.5999999999999999,0.4000000000000001,164.1427864169999,165.8893341669999,165.8910065419999,167.823347292,mostlyred,red,1,0,1,1,6,[0.4000000000000001],0.4000000000000001,,,,,,,,,,,,,,,,,260506bl,001,2026-05-06_16h23.29.259,priming,,2026.1.3,60.01290289414831,2026-05-06 16h23.29.772513 -0700,
,,,,,,,,,,,13,0.025,0.37500000000000006,,,,,167.83931233399994,,,,,,,167.82359187499992,168.82257404199993,0.625,0.37500000000000006,168.8259993339999,170.57266104199994,170.5740105839999,172.289972875,mostlyred,red,1,1,1,0,6,[0.4000000000000001],0.4000000000000001,,,,,,,,,,,,,,,,,260506bl,001,2026-05-06_16h23.29.259,priming,,2026.1.3,60.01290289414831,2026-05-06 16h23.29.772513 -0700,
,,,,,,,,,,,14,0.025,0.35000000000000003,,,,,172.30583662499998,,,,,,,172.29025724999997,173.28944395899998,0.6499999999999999,0.35000000000000003,173.2929251249999,175.039401334,175.04106187499997,176.37344274999998,mostlygreen,green,0,1,0,1,7,"[0.4000000000000001, 0.35000000000000003]",0.37500000000000006,,,,,,,,,,,,,,,,,260506bl,001,2026-05-06_16h23.29.259,priming,,2026.1.3,60.01290289414831,2026-05-06 16h23.29.772513 -0700,
,,,,,,,,,,,15,0.025,0.37500000000000006,,,,,176.38942558399992,,,,,,,176.37369358399997,177.372750334,0.625,0.37500000000000006,177.37622904199998,179.12290104199997,179.12389237499997,180.0900762089999,mostlyred,red,1,0,1,1,8,"[0.4000000000000001, 0.35000000000000003, 0.37500000000000006]",0.37500000000000006,,,,,,,,,,,,,,,,,260506bl,001,2026-05-06_16h23.29.259,priming,,2026.1.3,60.01290289414831,2026-05-06 16h23.29.772513 -0700,
,,,,,,,,,,,16,0.025,0.35000000000000003,,,,,180.10599487499996,,,,,,,180.09037924999996,181.08945145899997,0.6499999999999999,0.35000000000000003,181.0929198749999,182.83945612499997,182.84067904199992,185.7401108339999,mostlyred,red,1,1,1,0,8,"[0.4000000000000001, 0.35000000000000003, 0.37500000000000006]",0.37500000000000006,,,,,,,,,,,,,,,,,260506bl,001,2026-05-06_16h23.29.259,priming,,2026.1.3,60.01290289414831,2026-05-06 16h23.29.772513 -0700,
,,,,,,,,,,,17,0.025,0.325,,,,,185.75602574999994,,,,,,,185.74035558399999,186.73933312499992,0.675,0.325,186.74288862499998,188.489364917,188.4913624169999,190.40678483399995,mostlygreen,green,0,1,0,1,9,"[0.4000000000000001, 0.35000000000000003, 0.37500000000000006, 0.325]",0.36250000000000004,,,,,,,,,,,,,,,,,260506bl,001,2026-05-06_16h23.29.259,priming,,2026.1.3,60.01290289414831,2026-05-06 16h23.29.772513 -0700,
,,,,,,,,,,,18,0.025,0.35000000000000003,,,,,190.42267916699996,,,,,,,190.40703574999998,191.406113334,0.6499999999999999,0.35000000000000003,191.40956474999996,193.1560408339999,193.15820895899992,197.4400425419999,mostlygreen,green,0,0,0,0,9,"[0.4000000000000001, 0.35000000000000003, 0.37500000000000006, 0.325]",0.36250000000000004,,,,,,,,,,,,,,,,,260506bl,001,2026-05-06_16h23.29.259,priming,,2026.1.3,60.01290289414831,2026-05-06 16h23.29.772513 -0700,
,,,,,,,,,,,19,0.025,0.37500000000000006,,,,,197.4559536249999,,,,,,,197.44029045899993,198.43947383399995,0.625,0.37500000000000006,198.44290083399994,200.1894125839999,200.19103133399994,201.70672779199992,mostlyred,red,1,0,1,1,10,"[0.4000000000000001, 0.35000000000000003, 0.37500000000000006, 0.325, 0.37500000000000006]",0.36500000000000005,,,,,,,,,,,,,,,,,260506bl,001,2026-05-06_16h23.29.259,priming,,2026.1.3,60.01290289414831,2026-05-06 16h23.29.772513 -0700,
,,,,,,,,,,,20,0.025,0.35000000000000003,,,,,201.722682459,,,,,,,201.70698145899996,202.70609820899995,0.6499999999999999,0.35000000000000003,202.70950008399996,204.45614612499992,204.45761908399993,206.25681066699997,mostlyred,red,1,1,1,0,10,"[0.4000000000000001, 0.35000000000000003, 0.37500000000000006, 0.325, 0.37500000000000006]",0.36500000000000005,,,,,,,,,,,,,,,,,260506bl,001,2026-05-06_16h23.29.259,priming,,2026.1.3,60.01290289414831,2026-05-06 16h23.29.772513 -0700,
,,,,,,,,,,,21,0.025,0.325,,,,,206.272712792,,,,,,,206.2570539169999,207.25605270899996,0.675,0.325,207.25948166699993,209.00620987499997,209.007943792,210.50700199999994,mostlyred,red,1,1,1,0,10,"[0.4000000000000001, 0.35000000000000003, 0.37500000000000006, 0.325, 0.37500000000000006]",0.36500000000000005,,,,,,,,,,,,,,,,,260506bl,001,2026-05-06_16h23.29.259,priming,,2026.1.3,60.01290289414831,2026-05-06 16h23.29.772513 -0700,
,,,,,,,,,,,22,0.025,0.3,,,,,210.52273391699998,,,,,,,210.507271167,211.5062482919999,0.7,0.3,211.50972341699992,213.25624574999995,213.2578327089999,214.1401807919999,mostlyred,red,1,1,1,0,10,"[0.4000000000000001, 0.35000000000000003, 0.37500000000000006, 0.325, 0.37500000000000006]",0.36500000000000005,,,,,,,,,,,,,,,,,260506bl,001,2026-05-06_16h23.29.259,priming,,2026.1.3,60.01290289414831,2026-05-06 16h23.29.772513 -0700,
,,,,,,,,,,,23,0.025,0.27499999999999997,,,,,214.1561264999999,,,,,,,214.140427209,215.13959224999996,0.7250000000000001,0.27499999999999997,215.143043875,216.8895786249999,216.8912550419999,219.70693904199993,mostlygreen,green,0,1,0,1,11,"[0.4000000000000001, 0.35000000000000003, 0.37500000000000006, 0.325, 0.37500000000000006, 0.27499999999999997]",0.35000000000000003,,,,,,,,,,,,,,,,,260506bl,001,2026-05-06_16h23.29.259,priming,,2026.1.3,60.01290289414831,2026-05-06 16h23.29.772513 -0700,
,,,,,,,,,,,24,0.025,0.3,,,,,219.7228325839999,,,,,,,219.7071921669999,220.706209167,0.7,0.3,220.70964437499993,222.4562633339999,222.45785820899994,223.44019679199994,mostlyred,red,1,0,1,1,12,"[0.4000000000000001, 0.35000000000000003, 0.37500000000000006, 0.325, 0.37500000000000006, 0.27499999999999997, 0.3]",0.34285714285714286,,,,,,,,,,,,,,,,,260506bl,001,2026-05-06_16h23.29.259,priming,,2026.1.3,60.01290289414831,2026-05-06 16h23.29.772513 -0700,
,,,,,,,,,,,25,0.025,0.27499999999999997,,,,,223.45615366699997,,,,,,,223.44044662499994,224.43958524999994,0.7250000000000001,0.27499999999999997,224.44298304199992,226.18959304199996,226.1910506669999,227.37363074999996,mostlyred,red,1,1,1,0,12,"[0.4000000000000001, 0.35000000000000003, 0.37500000000000006, 0.325, 0.37500000000000006, 0.27499999999999997, 0.3]",0.34285714285714286,,,,,,,,,,,,,,,,,260506bl,001,2026-05-06_16h23.29.259,priming,,2026.1.3,60.01290289414831,2026-05-06 16h23.29.772513 -0700,
,,,,,,,,,,,26,0.025,0.24999999999999997,,,,,227.38945933399998,,,,,,,227.37394266699994,228.37279216699994,0.75,0.24999999999999997,228.37623733399994,230.12292087499998,230.12465575,231.99029295899993,mostlyred,red,1,1,1,0,12,"[0.4000000000000001, 0.35000000000000003, 0.37500000000000006, 0.325, 0.37500000000000006, 0.27499999999999997, 0.3]",0.34285714285714286,,,,,,,,,,,,,,,,,260506bl,001,2026-05-06_16h23.29.259,priming,,2026.1.3,60.01290289414831,2026-05-06 16h23.29.772513 -0700,
,,,,,,,,,,,27,0.025,0.22499999999999998,,,,,232.00613687499992,,,,,,,231.99054562499998,232.98955362499999,0.775,0.22499999999999998,232.99304295899992,234.7395469999999,234.7411881249999,235.64072533399997,mostlygreen,green,0,1,0,1,13,"[0.4000000000000001, 0.35000000000000003, 0.37500000000000006, 0.325, 0.37500000000000006, 0.27499999999999997, 0.3, 0.22499999999999998]",0.328125,,,,,,,,,,,,,,,,,260506bl,001,2026-05-06_16h23.29.259,priming,,2026.1.3,60.01290289414831,2026-05-06 16h23.29.772513 -0700,
,,,,,,,,,,,28,0.025,0.24999999999999997,,,,,235.65612095899996,,,,,,,235.6409947919999,236.6395930839999,0.75,0.24999999999999997,236.6429435419999,238.38968254199995,238.39114308399996,240.94034354199994,mostlygreen,green,0,0,0,0,13,"[0.4000000000000001, 0.35000000000000003, 0.37500000000000006, 0.325, 0.37500000000000006, 0.27499999999999997, 0.3, 0.22499999999999998]",0.328125,,,,,,,,,,,,,,,,,260506bl,001,2026-05-06_16h23.29.259,priming,,2026.1.3,60.01290289414831,2026-05-06 16h23.29.772513 -0700,
,,,,,,,,,,,29,0.025,0.27499999999999997,,,,,240.95618312499994,,,,,,,240.94059312499996,241.93960370899993,0.7250000000000001,0.27499999999999997,241.94305562499994,243.68947879199993,243.69138054199993,249.32372533399996,mostlyred,red,1,0,1,1,14,"[0.4000000000000001, 0.35000000000000003, 0.37500000000000006, 0.325, 0.37500000000000006, 0.27499999999999997, 0.3, 0.22499999999999998, 0.27499999999999997]",0.3222222222222222,,,,,,,,,,,,,,,,,260506bl,001,2026-05-06_16h23.29.259,priming,,2026.1.3,60.01290289414831,2026-05-06 16h23.29.772513 -0700,
,,,,,,,,,,,30,0.025,0.24999999999999997,,,,,249.3396029999999,,,,,,,249.32397370899992,250.323084667,0.75,0.24999999999999997,250.32658108399994,252.07294049999996,252.07486479199997,253.540388292,mostlygreen,green,0,1,0,1,15,"[0.4000000000000001, 0.35000000000000003, 0.37500000000000006, 0.325, 0.37500000000000006, 0.27499999999999997, 0.3, 0.22499999999999998, 0.27499999999999997, 0.24999999999999997]",0.315,,,,,,,,,,,,,,,,,260506bl,001,2026-05-06_16h23.29.259,priming,,2026.1.3,60.01290289414831,2026-05-06 16h23.29.772513 -0700,
,,,,,,,,,,,31,0.025,0.27499999999999997,,,,,253.556277917,,,,,,,253.5406425839999,254.53975949999995,0.7250000000000001,0.27499999999999997,254.5432549169999,256.2896257089999,256.29143775,258.4570403749999,mostlygreen,green,0,0,0,0,15,"[0.4000000000000001, 0.35000000000000003, 0.37500000000000006, 0.325, 0.37500000000000006, 0.27499999999999997, 0.3, 0.22499999999999998, 0.27499999999999997, 0.24999999999999997]",0.315,,,,,,,,,,,,,,,,,260506bl,001,2026-05-06_16h23.29.259,priming,,2026.1.3,60.01290289414831,2026-05-06 16h23.29.772513 -0700,
,,,,,,,,,,,32,0.025,0.3,,,,,258.47291608399996,,,,,,,258.4572919589999,259.45638499999995,0.7,0.3,259.45980695899993,261.2063294999999,261.207643042,261.8570807089999,mostlygreen,green,0,0,0,0,15,"[0.4000000000000001, 0.35000000000000003, 0.37500000000000006, 0.325, 0.37500000000000006, 0.27499999999999997, 0.3, 0.22499999999999998, 0.27499999999999997, 0.24999999999999997]",0.315,,,,,,,,,,,,,,,,,260506bl,001,2026-05-06_16h23.29.259,priming,,2026.1.3,60.01290289414831,2026-05-06 16h23.29.772513 -0700,
,,,,,,,,,,,33,0.025,0.325,,,,,261.8729690419999,,,,,,,261.857332875,262.8563788749999,0.675,0.325,262.8598714589999,264.60637733399994,264.60811016699995,265.9570430839999,mostlyred,red,1,0,1,1,16,"[0.4000000000000001, 0.35000000000000003, 0.37500000000000006, 0.325, 0.37500000000000006, 0.27499999999999997, 0.3, 0.22499999999999998, 0.27499999999999997, 0.24999999999999997, 0.325]",0.3159090909090909,,,,,,,,,,,,,,,,,260506bl,001,2026-05-06_16h23.29.259,priming,,2026.1.3,60.01290289414831,2026-05-06 16h23.29.772513 -0700,
,,,,,,,,,,,34,0.025,0.3,,,,,265.9729343749999,,,,,,,265.9572919169999,266.956335375,0.7,0.3,266.9597424169999,268.706377084,268.707662209,270.340416334,mostlyred,red,1,1,1,0,16,"[0.4000000000000001, 0.35000000000000003, 0.37500000000000006, 0.325, 0.37500000000000006, 0.27499999999999997, 0.3, 0.22499999999999998, 0.27499999999999997, 0.24999999999999997, 0.325]",0.3159090909090909,,,,,,,,,,,,,,,,,260506bl,001,2026-05-06_16h23.29.259,priming,,2026.1.3,60.01290289414831,2026-05-06 16h23.29.772513 -0700,
,,,,,,,,,,,35,0.025,0.27499999999999997,,,,,270.356277375,,,,,,,270.34066604199995,271.33970691699994,0.7250000000000001,0.27499999999999997,271.3431664589999,273.08960045899994,273.091087959,274.19029591699996,mostlyred,red,1,1,1,0,16,"[0.4000000000000001, 0.35000000000000003, 0.37500000000000006, 0.325, 0.37500000000000006, 0.27499999999999997, 0.3, 0.22499999999999998, 0.27499999999999997, 0.24999999999999997, 0.325]",0.3159090909090909,,,,,,,,,,,,,,,,,260506bl,001,2026-05-06_16h23.29.259,priming,,2026.1.3,60.01290289414831,2026-05-06 16h23.29.772513 -0700,
,,,,,,,,,,,36,0.025,0.24999999999999997,,,,,274.2064386249999,,,,,,,274.19055141699994,275.18961016699996,0.75,0.24999999999999997,275.19305595899993,276.939696875,276.9414076669999,277.9070674169999,mostlyred,red,1,1,1,0,16,"[0.4000000000000001, 0.35000000000000003, 0.37500000000000006, 0.325, 0.37500000000000006, 0.27499999999999997, 0.3, 0.22499999999999998, 0.27499999999999997, 0.24999999999999997, 0.325]",0.3159090909090909,,,,,,,,,,,,,,,,,260506bl,001,2026-05-06_16h23.29.259,priming,,2026.1.3,60.01290289414831,2026-05-06 16h23.29.772513 -0700,
,,,,,,,,,,,37,0.025,0.22499999999999998,,,,,277.923006375,,,,,,,277.9073377499999,278.9063632089999,0.775,0.22499999999999998,278.90977266699997,280.65635429199995,280.6575964169999,281.74031825,mostlygreen,green,0,1,0,1,17,"[0.4000000000000001, 0.35000000000000003, 0.37500000000000006, 0.325, 0.37500000000000006, 0.27499999999999997, 0.3, 0.22499999999999998, 0.27499999999999997, 0.24999999999999997, 0.325, 0.22499999999999998]",0.30833333333333335,,,,,,,,,,,,,,,,,260506bl,001,2026-05-06_16h23.29.259,priming,,2026.1.3,60.01290289414831,2026-05-06 16h23.29.772513 -0700,
,,,,,,,,,,,38,0.025,0.24999999999999997,,,,,281.756323417,,,,,,,281.740568792,282.7396877919999,0.75,0.24999999999999997,282.7431866249999,284.489739709,284.49164604199996,286.0406208339999,mostlygreen,green,0,0,0,0,17,"[0.4000000000000001, 0.35000000000000003, 0.37500000000000006, 0.325, 0.37500000000000006, 0.27499999999999997, 0.3, 0.22499999999999998, 0.27499999999999997, 0.24999999999999997, 0.325, 0.22499999999999998]",0.30833333333333335,,,,,,,,,,,,,,,,,260506bl,001,2026-05-06_16h23.29.259,priming,,2026.1.3,60.01290289414831,2026-05-06 16h23.29.772513 -0700,
,,,,,,,,,,,39,0.025,0.27499999999999997,,,,,286.056453167,,,,,,,286.0408814169999,287.03970720899997,0.7250000000000001,0.27499999999999997,287.043083875,288.7898342499999,288.79112095899995,289.57384749999994,mostlyred,red,1,0,1,1,18,"[0.4000000000000001, 0.35000000000000003, 0.37500000000000006, 0.325, 0.37500000000000006, 0.27499999999999997, 0.3, 0.22499999999999998, 0.27499999999999997, 0.24999999999999997, 0.325, 0.22499999999999998, 0.27499999999999997]",0.3057692307692308,,,,,,,,,,,,,,,,,260506bl,001,2026-05-06_16h23.29.259,priming,,2026.1.3,60.01290289414831,2026-05-06 16h23.29.772513 -0700,
,,,,,,,,,,,40,0.025,0.24999999999999997,,,,,289.58967404199996,,,,,,,289.57409979199997,290.5731985839999,0.75,0.24999999999999997,290.576637334,292.323242834,292.3244045839999,293.52376925,mostlygreen,green,0,1,0,1,19,"[0.4000000000000001, 0.35000000000000003, 0.37500000000000006, 0.325, 0.37500000000000006, 0.27499999999999997, 0.3, 0.22499999999999998, 0.27499999999999997, 0.24999999999999997, 0.325, 0.22499999999999998, 0.27499999999999997, 0.24999999999999997]",0.30178571428571427,,,,,,,,,,,,,,,,,260506bl,001,2026-05-06_16h23.29.259,priming,,2026.1.3,60.01290289414831,2026-05-06 16h23.29.772513 -0700,
,,,,,,,,,,,41,0.025,0.27499999999999997,,,,,293.53968795899993,,,,,,,293.5240215839999,294.52305183399994,0.7250000000000001,0.27499999999999997,294.52647687499996,296.2731662499999,296.2748026669999,297.05725599999994,mostlyred,red,1,0,1,1,20,"[0.4000000000000001, 0.35000000000000003, 0.37500000000000006, 0.325, 0.37500000000000006, 0.27499999999999997, 0.3, 0.22499999999999998, 0.27499999999999997, 0.24999999999999997, 0.325, 0.22499999999999998, 0.27499999999999997, 0.24999999999999997, 0.27499999999999997]",0.3,,,,,,,,,,,,,,,,,260506bl,001,2026-05-06_16h23.29.259,priming,,2026.1.3,60.01290289414831,2026-05-06 16h23.29.772513 -0700,
,,,,,,,,,,,,,,,,,,,,,,space,91.978319167,None,,,,,,,,,,,,,,,,,,,,,,,,,,,,,,,,,,260506bl,001,2026-05-06_16h23.29.259,priming,,2026.1.3,60.01290289414831,2026-05-06 16h23.29.772513 -0700,
GR_Congruent_GreenCue_GreenProbe_Bottom,GreenGaborBoth.png,RedGaborBoth.png,GreenGaborDisappearBottom.png,RedGaborBoth.png,Green.mp3,green,bottom,0,0,0,,,,0,0,0,3,389.12338891699994,,,,,,,,,,,,,,,,bottom,,,,,,,,389.110601084,401.64045962499995,401.64062416699994,406.8901233749999,406.89934574999995,408.140169584,408.14191541699995,411.957319459,411.95887337499994,416.62448908399983,mostlyred,FinalRedContrast,FinalGreenContrast,416.62531591699985,423.30758712500005,2,260506bl,001,2026-05-06_16h23.29.259,priming,,2026.1.3,60.01290289414831,2026-05-06 16h23.29.772513 -0700,
GR_Congruent_RedCue_RedProbe_Bottom,GreenGaborBoth.png,RedGaborBoth.png,GreenGaborBoth.png,RedGaborDisappearBottom.png,Red.mp3,red,bottom,1,1,0,,,,0,1,1,57,423.32336766699996,,,,,,,,,,,,,,,,bottom,,,,,,,,423.309335292,429.27387524999995,429.2740383749999,434.5234822919999,434.5316178339999,435.77351462499996,435.77483725,437.67415774999995,437.67563541699997,442.79113233399994,mostlyred,FinalRedContrast,FinalGreenContrast,442.7921745419999,457.40777125,4,260506bl,001,2026-05-06_16h23.29.259,priming,,2026.1.3,60.01290289414831,2026-05-06 16h23.29.772513 -0700,
GR_Incongruent_RedCue_GreenProbe_Top,GreenGaborBoth.png,RedGaborBoth.png,GreenGaborDisappearTop.png,RedGaborBoth.png,Red.mp3,red,top,2,2,0,,,,0,2,2,12,457.4236216669999,,,,,,,,,,,,,,,,top,,,,,,,,457.40786979199993,460.207768042,460.2079537919999,465.45699920899983,465.4651087499999,466.7070205,466.70830179199993,468.55744916699996,468.55921995899985,471.15779295899983,mostlygreen,FinalRedContrast,FinalGreenContrast,471.15902974999995,474.4579483749999,4,260506bl,001,2026-05-06_16h23.29.259,priming,,2026.1.3,60.01290289414831,2026-05-06 16h23.29.772513 -0700,
GR_Congruent_RedCue_RedProbe_Top,GreenGaborBoth.png,RedGaborBoth.png,GreenGaborBoth.png,RedGaborDisappearTop.png,Red.mp3,red,top,3,3,0,,,,0,3,3,24,474.47363475,,,,,,,,,,,,,,,,top,,,,,,,,474.45809404199986,476.024031959,476.0241954169999,481.27380783399985,481.28193229199996,482.52377179199993,482.52549970899986,484.690869,484.692505084,487.59120604199984,mostlyred,FinalRedContrast,FinalGreenContrast,487.5924655839999,496.20826866699986,2,260506bl,001,2026-05-06_16h23.29.259,priming,,2026.1.3,60.01290289414831,2026-05-06 16h23.29.772513 -0700,
GR_Congruent_RedCue_RedProbe_Bottom,GreenGaborBoth.png,RedGaborBoth.png,GreenGaborBoth.png,RedGaborDisappearBottom.png,Red.mp3,red,bottom,4,4,0,,,,0,4,4,1,496.22363295900004,,,,,,,,,,,,,,,,bottom,,,,,,,,496.20837374999996,503.79071495899984,503.79087958399987,509.04041333400005,509.046821209,510.29047479199994,510.292246709,510.99081649999994,510.99260754199986,512.774722209,mostlyred,FinalRedContrast,FinalGreenContrast,512.775258875,515.8414877499999,2,260506bl,001,2026-05-06_16h23.29.259,priming,,2026.1.3,60.01290289414831,2026-05-06 16h23.29.772513 -0700,
GR_Incongruent_GreenCue_RedProbe_Top,GreenGaborBoth.png,RedGaborBoth.png,GreenGaborBoth.png,RedGaborDisappearTop.png,Green.mp3,green,top,5,5,0,,,,0,5,5,6,515.8571663749999,,,,,,,,,,,,,,,,top,,,,,,,,515.843376709,521.5242015419999,521.5243661249999,526.7739926669999,526.7822236249999,528.0239240419999,528.0255809169998,529.7909917919999,529.7921442919999,532.3247755,mostlygreen,FinalRedContrast,FinalGreenContrast,532.325835917,537.5248569169999,2,260506bl,001,2026-05-06_16h23.29.259,priming,,2026.1.3,60.01290289414831,2026-05-06 16h23.29.772513 -0700,
GR_Incongruent_GreenCue_RedProbe_Bottom,GreenGaborBoth.png,RedGaborBoth.png,GreenGaborBoth.png,RedGaborDisappearBottom.png,Green.mp3,green,bottom,6,6,0,,,,0,6,6,63,537.5404794589999,,,,,,,,,,,,,,,,bottom,,,,,,,,537.5249536669999,546.174229834,546.1743953339999,551.424084625,551.4317617919999,552.673944417,552.6756082089998,555.34103875,555.342787584,558.358184917,allgreen,FinalRedContrast,FinalGreenContrast,558.359164959,560.6749206249999,1,260506bl,001,2026-05-06_16h23.29.259,priming,,2026.1.3,60.01290289414831,2026-05-06 16h23.29.772513 -0700,
GG_non_riv_catch_RedCue_GreenProbe_Bottom,GreenGaborBoth.png,Blank.png,GreenGaborDisappearBottom.png,Blank.png,Red.mp3,red,bottom,7,7,0,,,,0,7,7,77,560.6906376249999,,,,,,,,,,,,,,,,bottom,,,,,,,,560.6767002499998,562.974414709,562.9745782089999,568.224048709,568.2320541669999,569.474053209,569.475859417,570.6245014169999,570.6264055839999,572.1752656249998,allgreen,FinalRedContrast,FinalGreenContrast,572.175673084,574.2415867089999,1,260506bl,001,2026-05-06_16h23.29.259,priming,,2026.1.3,60.01290289414831,2026-05-06 16h23.29.772513 -0700,
GR_Incongruent_RedCue_GreenProbe_Bottom,GreenGaborBoth.png,RedGaborBoth.png,GreenGaborDisappearBottom.png,RedGaborBoth.png,Red.mp3,red,bottom,8,8,0,,,,0,8,8,5,574.2573109999998,,,,,,,,,,,,,,,,bottom,,,,,,,,574.2416828749999,578.724431417,578.724598084,583.9740058749999,583.981075959,585.22412125,585.225849125,586.241200917,586.242067292,588.2082552499999,mostlygreen,FinalRedContrast,FinalGreenContrast,588.209350584,593.4914712499999,1,260506bl,001,2026-05-06_16h23.29.259,priming,,2026.1.3,60.01290289414831,2026-05-06 16h23.29.772513 -0700,
GR_Incongruent_RedCue_GreenProbe_Top,GreenGaborBoth.png,RedGaborBoth.png,GreenGaborDisappearTop.png,RedGaborBoth.png,Red.mp3,red,top,9,9,0,,,,0,9,9,4,593.507374584,,,,,,,,,,,,,,,,top,,,,,,,,593.491567584,596.3745107089999,596.3746775,601.624198,601.6319048339999,602.874181167,602.875788667,603.591590584,603.592022417,606.058351917,mostlygreen,FinalRedContrast,FinalGreenContrast,606.0593679169999,609.608355459,2,260506bl,001,2026-05-06_16h23.29.259,priming,,2026.1.3,60.01290289414831,2026-05-06 16h23.29.772513 -0700,
GR_Incongruent_GreenCue_RedProbe_Bottom,GreenGaborBoth.png,RedGaborBoth.png,GreenGaborBoth.png,RedGaborDisappearBottom.png,Green.mp3,green,bottom,10,10,0,,,,0,10,10,47,609.6240841669999,,,,,,,,,,,,,,,,bottom,,,,,,,,609.610164292,611.074491334,611.0746565,616.3241486249999,616.3310282919999,617.57416575,617.5754214169999,620.957929834,620.9594748749998,623.408437542,mostlygreen,FinalRedContrast,FinalGreenContrast,623.409429542,624.375001459,1,260506bl,001,2026-05-06_16h23.29.259,priming,,2026.1.3,60.01290289414831,2026-05-06 16h23.29.772513 -0700,
GR_Congruent_GreenCue_GreenProbe_Bottom,GreenGaborBoth.png,RedGaborBoth.png,GreenGaborDisappearBottom.png,RedGaborBoth.png,Green.mp3,green,bottom,11,11,0,,,,0,11,11,67,624.3907180419999,,,,,,,,,,,,,,,,bottom,,,,,,,,624.3750995,631.291087459,631.291251334,636.540914292,636.549359542,637.790933,637.7924785,639.3082985419999,639.3097514169999,641.0918208749999,mostlygreen,FinalRedContrast,FinalGreenContrast,641.092897625,642.0418132499999,2,260506bl,001,2026-05-06_16h23.29.259,priming,,2026.1.3,60.01290289414831,2026-05-06 16h23.29.772513 -0700,
GR_Congruent_GreenCue_GreenProbe_Bottom,GreenGaborBoth.png,RedGaborBoth.png,GreenGaborDisappearBottom.png,RedGaborBoth.png,Green.mp3,green,bottom,12,12,0,,,,0,12,12,35,642.0575880839999,,,,,,,,,,,,,,,,bottom,,,,,,,,642.0419293749999,647.0746474589998,647.0748115419999,652.3243205839999,652.330896125,653.5742984589999,653.5759378339999,654.624777709,654.625748792,656.325055584,mostlygreen,FinalRedContrast,FinalGreenContrast,656.326159667,658.341741917,2,260506bl,001,2026-05-06_16h23.29.259,priming,,2026.1.3,60.01290289414831,2026-05-06 16h23.29.772513 -0700,
GR_Incongruent_RedCue_GreenProbe_Bottom,GreenGaborBoth.png,RedGaborBoth.png,GreenGaborDisappearBottom.png,RedGaborBoth.png,Red.mp3,red,bottom,13,13,0,,,,0,13,13,29,658.3576934169998,,,,,,,,,,,,,,,,bottom,,,,,,,,658.343523834,660.6078661249999,660.6080299169998,665.857587167,665.8640406249999,667.107603375,667.1091947089999,669.358422542,669.3594418339999,671.108542292,allgreen,FinalRedContrast,FinalGreenContrast,671.1089024169999,673.6250535839999,1,260506bl,001,2026-05-06_16h23.29.259,priming,,2026.1.3,60.01290289414831,2026-05-06 16h23.29.772513 -0700,
GR_Congruent_RedCue_RedProbe_Bottom,GreenGaborBoth.png,RedGaborBoth.png,GreenGaborBoth.png,RedGaborDisappearBottom.png,Red.mp3,red,bottom,14,14,0,,,,0,14,14,33,673.6409315839999,,,,,,,,,,,,,,,,bottom,,,,,,,,673.6251521249999,681.4081643749998,681.4083310839999,686.6577616249999,686.6653798749999,687.9077822089998,687.9092715419999,689.408181792,689.4092209999999,691.3585365839999,mostlygreen,FinalRedContrast,FinalGreenContrast,691.3597802499999,693.7252431669999,2,260506bl,001,2026-05-06_16h23.29.259,priming,,2026.1.3,60.01290289414831,2026-05-06 16h23.29.772513 -0700,
GR_Congruent_RedCue_RedProbe_Bottom,GreenGaborBoth.png,RedGaborBoth.png,GreenGaborBoth.png,RedGaborDisappearBottom.png,Red.mp3,red,bottom,15,15,0,,,,0,15,15,41,693.7410327499999,,,,,,,,,,,,,,,,bottom,,,,,,,,693.725392625,702.707967417,702.708131334,707.957783542,707.9642161249999,709.207793459,709.20949275,711.158184167,711.159706959,712.9086365000001,mostlygreen,FinalRedContrast,FinalGreenContrast,712.9098328339999,715.5586276249999,2,260506bl,001,2026-05-06_16h23.29.259,priming,,2026.1.3,60.01290289414831,2026-05-06 16h23.29.772513 -0700,
GR_Congruent_RedCue_RedProbe_Bottom,GreenGaborBoth.png,RedGaborBoth.png,GreenGaborBoth.png,RedGaborDisappearBottom.png,Red.mp3,red,bottom,16,16,0,,,,0,16,16,65,715.574389292,,,,,,,,,,,,,,,,bottom,,,,,,,,715.558723542,718.3415729169999,718.341739042,723.591344792,723.5979023749999,724.8412887089999,724.8428584999999,726.558265292,726.559909625,727.842131334,evensplit,FinalRedContrast,FinalGreenContrast,727.8425386669999,729.9757347919999,1,260506bl,001,2026-05-06_16h23.29.259,priming,,2026.1.3,60.01290289414831,2026-05-06 16h23.29.772513 -0700,
GR_Incongruent_GreenCue_RedProbe_Bottom,GreenGaborBoth.png,RedGaborBoth.png,GreenGaborBoth.png,RedGaborDisappearBottom.png,Green.mp3,green,bottom,17,17,0,,,,0,17,17,15,729.9911427089999,,,,,,,,,,,,,,,,bottom,,,,,,,,729.977549917,730.7414972499998,730.7416618339998,735.9911634589998,735.9977227919999,737.2412394589999,737.2427178339999,739.3916095,739.392991834,741.1588756249998,mostlygreen,FinalRedContrast,FinalGreenContrast,741.1598122089999,743.892043542,1,260506bl,001,2026-05-06_16h23.29.259,priming,,2026.1.3,60.01290289414831,2026-05-06 16h23.29.772513 -0700,
GR_Congruent_RedCue_RedProbe_Top,GreenGaborBoth.png,RedGaborBoth.png,GreenGaborBoth.png,RedGaborDisappearTop.png,Red.mp3,red,top,18,18,0,,,,0,18,18,32,743.907840584,,,,,,,,,,,,,,,,bottom,,,,,,,,743.893661417,746.9414872919999,746.9416537499999,752.191175209,752.19853625,753.4412924589999,753.4428989169999,755.4083787919999,755.4093849999999,756.8419912089998,mostlygreen,FinalRedContrast,FinalGreenContrast,756.843256959,758.341982917,1,260506bl,001,2026-05-06_16h23.29.259,priming,,2026.1.3,60.01290289414831,2026-05-06 16h23.29.772513 -0700,
GR_Congruent_RedCue_RedProbe_Top,GreenGaborBoth.png,RedGaborBoth.png,GreenGaborBoth.png,RedGaborDisappearTop.png,Red.mp3,red,top,19,19,0,,,,0,19,19,56,758.3578426669999,,,,,,,,,,,,,,,,bottom,,,,,,,,758.3420799589999,760.8083307499999,760.80849375,766.0579975419998,766.064432167,767.3080774589998,767.3094195839999,768.40848325,768.40957275,771.3755872089998,evensplit,FinalRedContrast,FinalGreenContrast,771.375975125,773.6088823749999,2,260506bl,001,2026-05-06_16h23.29.259,priming,,2026.1.3,60.01290289414831,2026-05-06 16h23.29.772513 -0700,
GR_Incongruent_GreenCue_RedProbe_Top,GreenGaborBoth.png,RedGaborBoth.png,GreenGaborBoth.png,RedGaborDisappearTop.png,Green.mp3,green,top,20,20,0,,,,0,20,20,62,773.624637167,,,,,,,,,,,,,,,,top,,,,,,,,773.610793459,777.008374667,777.0085402499999,782.258030709,782.264403459,783.508105292,783.509629375,785.691781542,785.6933152919999,789.0589687919999,mostlygreen,FinalRedContrast,FinalGreenContrast,789.059514417,791.1087769589999,2,260506bl,001,2026-05-06_16h23.29.259,priming,,2026.1.3,60.01290289414831,2026-05-06 16h23.29.772513 -0700,
GR_Incongruent_RedCue_GreenProbe_Top,GreenGaborBoth.png,RedGaborBoth.png,GreenGaborDisappearTop.png,RedGaborBoth.png,Red.mp3,red,top,21,21,0,,,,0,21,21,20,791.12462375,,,,,,,,,,,,,,,,top,,,,,,,,791.1104335,794.258382667,794.2585455839999,799.5080969589999,799.515623584,800.7580667499999,800.7599387089999,801.742263917,801.7432377499999,803.358941709,evensplit,FinalRedContrast,FinalGreenContrast,803.360052584,804.9922672499999,2,260506bl,001,2026-05-06_16h23.29.259,priming,,2026.1.3,60.01290289414831,2026-05-06 16h23.29.772513 -0700,
GR_Incongruent_GreenCue_RedProbe_Bottom,GreenGaborBoth.png,RedGaborBoth.png,GreenGaborBoth.png,RedGaborDisappearBottom.png,Green.mp3,green,bottom,22,22,0,,,,0,22,22,71,805.0080834169999,,,,,,,,,,,,,,,,bottom,,,,,,,,804.9941436669999,808.691746834,808.6919109169999,813.941487375,813.947791,815.1914147499999,815.193497834,817.4753055419999,817.4763331669999,819.8590367499999,allgreen,FinalRedContrast,FinalGreenContrast,819.860104375,821.908972875,2,260506bl,001,2026-05-06_16h23.29.259,priming,,2026.1.3,60.01290289414831,2026-05-06 16h23.29.772513 -0700,
GR_Congruent_GreenCue_GreenProbe_Top,GreenGaborBoth.png,RedGaborBoth.png,GreenGaborDisappearTop.png,RedGaborBoth.png,Green.mp3,green,top,23,23,0,,,,0,23,23,2,821.9246860419998,,,,,,,,,,,,,,,,top,,,,,,,,821.90907075,824.2084729169999,824.208637084,829.4581356249998,829.4665428339999,830.7080954169999,830.7096132499998,832.2419259999999,832.243437959,833.4922649589998,mostlygreen,FinalRedContrast,FinalGreenContrast,833.4937365419999,835.52569825,2,260506bl,001,2026-05-06_16h23.29.259,priming,,2026.1.3,60.01290289414831,2026-05-06 16h23.29.772513 -0700,
GR_Congruent_GreenCue_GreenProbe_Top,GreenGaborBoth.png,RedGaborBoth.png,GreenGaborDisappearTop.png,RedGaborBoth.png,Green.mp3,green,top,24,24,0,,,,0,24,24,18,835.541565084,,,,,,,,,,,,,,,,top,,,,,,,,835.5258015,836.4751735,836.475336792,841.7248320839999,841.7312662089998,842.974955292,842.9766072499999,844.792063917,844.7936406669999,845.6258681669999,mostlygreen,FinalRedContrast,FinalGreenContrast,845.626445542,848.9423542499999,2,260506bl,001,2026-05-06_16h23.29.259,priming,,2026.1.3,60.01290289414831,2026-05-06 16h23.29.772513 -0700,
GR_Congruent_RedCue_RedProbe_Bottom,GreenGaborBoth.png,RedGaborBoth.png,GreenGaborBoth.png,RedGaborDisappearBottom.png,Red.mp3,red,bottom,25,25,0,,,,0,25,25,17,848.9582479589999,,,,,,,,,,,,,,,,bottom,,,,,,,,848.943991459,850.0752115,850.075375375,855.324997792,855.3325264589998,856.5749807499999,856.5765260839999,857.5590621669999,857.5594751249998,859.9258023749999,mostlygreen,FinalRedContrast,FinalGreenContrast,859.9268279999999,862.1758419169998,1,260506bl,001,2026-05-06_16h23.29.259,priming,,2026.1.3,60.01290289414831,2026-05-06 16h23.29.772513 -0700,
GR_Incongruent_RedCue_GreenProbe_Bottom,GreenGaborBoth.png,RedGaborBoth.png,GreenGaborDisappearBottom.png,RedGaborBoth.png,Red.mp3,red,bottom,26,26,0,,,,0,26,26,37,862.191593542,,,,,,,,,,,,,,,,bottom,,,,,,,,862.1759514169999,863.058759625,863.05892425,868.308278042,868.3157946669999,869.558346709,869.560207125,870.308728709,870.3103557919999,871.2424684999999,mostlygreen,FinalRedContrast,FinalGreenContrast,871.2435546669999,873.309204417,1,260506bl,001,2026-05-06_16h23.29.259,priming,,2026.1.3,60.01290289414831,2026-05-06 16h23.29.772513 -0700,
GR_Incongruent_GreenCue_RedProbe_Top,GreenGaborBoth.png,RedGaborBoth.png,GreenGaborBoth.png,RedGaborDisappearTop.png,Green.mp3,green,top,27,27,0,,,,0,27,27,14,873.3249235419999,,,,,,,,,,,,,,,,bottom,,,,,,,,873.311109209,873.958606959,873.9587724999999,879.208250917,879.2156656669999,880.458335625,880.4602172919999,883.858843834,883.860251625,886.1259239999999,mostlygreen,FinalRedContrast,FinalGreenContrast,886.127010292,887.9758750839999,2,260506bl,001,2026-05-06_16h23.29.259,priming,,2026.1.3,60.01290289414831,2026-05-06 16h23.29.772513 -0700,
GR_Incongruent_RedCue_GreenProbe_Bottom,GreenGaborBoth.png,RedGaborBoth.png,GreenGaborDisappearBottom.png,RedGaborBoth.png,Red.mp3,red,bottom,28,28,0,,,,0,28,28,21,887.991678292,,,,,,,,,,,,,,,,bottom,,,,,,,,887.9775207089999,893.1919845,893.1921475839999,898.4417176249999,898.448151625,899.691744,899.6930474999999,900.9421912089999,900.9436165,902.2092499169999,mostlygreen,FinalRedContrast,FinalGreenContrast,902.210382667,906.0259827089999,1,260506bl,001,2026-05-06_16h23.29.259,priming,,2026.1.3,60.01290289414831,2026-05-06 16h23.29.772513 -0700,
GR_Congruent_RedCue_RedProbe_Top,GreenGaborBoth.png,RedGaborBoth.png,GreenGaborBoth.png,RedGaborDisappearTop.png,Red.mp3,red,top,29,29,0,,,,0,29,29,8,906.041615959,,,,,,,,,,,,,,,,bottom,,,,,,,,906.02608525,908.12570775,908.1258787919999,913.3750633339998,913.381569917,914.6251030419999,914.626722125,916.325590959,916.327104834,917.692614459,mostlygreen,FinalRedContrast,FinalGreenContrast,917.693250584,920.0760626249998,2,260506bl,001,2026-05-06_16h23.29.259,priming,,2026.1.3,60.01290289414831,2026-05-06 16h23.29.772513 -0700,
GR_Congruent_GreenCue_GreenProbe_Bottom,GreenGaborBoth.png,RedGaborBoth.png,GreenGaborDisappearBottom.png,RedGaborBoth.png,Green.mp3,green,bottom,30,30,0,,,,0,30,30,43,920.091784,,,,,,,,,,,,,,,,bottom,,,,,,,,920.077981375,923.1087688749999,923.108932375,928.3585666249999,928.36504775,929.6085599999999,929.610178334,931.0923085,931.0939363339999,932.1093625839999,mostlyred,FinalRedContrast,FinalGreenContrast,932.110457667,934.8926374589998,2,260506bl,001,2026-05-06_16h23.29.259,priming,,2026.1.3,60.01290289414831,2026-05-06 16h23.29.772513 -0700,
GR_Incongruent_RedCue_GreenProbe_Bottom,GreenGaborBoth.png,RedGaborBoth.png,GreenGaborDisappearBottom.png,RedGaborBoth.png,Red.mp3,red,bottom,31,31,0,,,,0,31,31,61,934.908441542,,,,,,,,,,,,,,,,bottom,,,,,,,,934.894294,935.5921672919999,935.59232875,940.8419947089999,940.848426709,942.091784959,942.094333125,943.9089851669999,943.9106308749999,944.6259554169999,mostlygreen,FinalRedContrast,FinalGreenContrast,944.627154584,947.5260404999999,2,260506bl,001,2026-05-06_16h23.29.259,priming,,2026.1.3,60.01290289414831,2026-05-06 16h23.29.772513 -0700,
GR_Congruent_RedCue_RedProbe_Top,GreenGaborBoth.png,RedGaborBoth.png,GreenGaborBoth.png,RedGaborDisappearTop.png,Red.mp3,red,top,32,32,0,,,,0,32,32,48,947.5417237919999,,,,,,,,,,,,,,,,bottom,,,,,,,,947.5261391669999,950.67546025,950.6756264589999,955.925139709,955.9315381249999,957.1751261669999,957.176959834,958.5756649999998,958.5765948339999,961.6594982499998,mostlygreen,FinalRedContrast,FinalGreenContrast,961.660086334,963.692660125,2,260506bl,001,2026-05-06_16h23.29.259,priming,,2026.1.3,60.01290289414831,2026-05-06 16h23.29.772513 -0700,
GR_Congruent_RedCue_RedProbe_Top,GreenGaborBoth.png,RedGaborBoth.png,GreenGaborBoth.png,RedGaborDisappearTop.png,Red.mp3,red,top,33,33,0,,,,0,33,33,0,963.7084251249998,,,,,,,,,,,,,,,,bottom,,,,,,,,963.692757,964.2587859589999,964.258950834,969.508576917,969.515101709,970.758670917,970.760131625,973.4424872499999,973.443982,974.676176125,mostlygreen,FinalRedContrast,FinalGreenContrast,974.677066917,975.676203875,1,260506bl,001,2026-05-06_16h23.29.259,priming,,2026.1.3,60.01290289414831,2026-05-06 16h23.29.772513 -0700,
GR_Congruent_RedCue_RedProbe_Bottom,GreenGaborBoth.png,RedGaborBoth.png,GreenGaborBoth.png,RedGaborDisappearBottom.png,Red.mp3,red,bottom,34,34,0,,,,0,34,34,9,975.691851709,,,,,,,,,,,,,,,,bottom,,,,,,,,975.6763357499999,976.159030625,976.1591934169999,981.408813042,981.415286792,982.658713542,982.6602472919999,985.159060209,985.1606504169999,987.9094963339999,mostlygreen,FinalRedContrast,FinalGreenContrast,987.910551209,989.4761799999999,1,260506bl,001,2026-05-06_16h23.29.259,priming,,2026.1.3,60.01290289414831,2026-05-06 16h23.29.772513 -0700,
GR_Congruent_RedCue_RedProbe_Top,GreenGaborBoth.png,RedGaborBoth.png,GreenGaborBoth.png,RedGaborDisappearTop.png,Red.mp3,red,top,35,35,0,,,,0,35,35,40,989.491828709,,,,,,,,,,,,,,,,bottom,,,,,,,,989.4763296249998,991.4590485839999,991.4592149589998,996.708629,996.7150887089999,997.9586549999999,997.960158917,1000.6924463339999,1000.6942018749999,1001.4927828749999,mostlygreen,FinalRedContrast,FinalGreenContrast,1001.49401775,1004.126140292,1,260506bl,001,2026-05-06_16h23.29.259,priming,,2026.1.3,60.01290289414831,2026-05-06 16h23.29.772513 -0700,
GG_non_riv_catch_GreenCue_GreenProbe_Bottom,GreenGaborBoth.png,Blank.png,GreenGaborDisappearBottom.png,Blank.png,Green.mp3,green,bottom,36,36,0,,,,0,36,36,79,1004.1418738749999,,,,,,,,,,,,,,,,bottom,,,,,,,,1004.1281147919999,1005.4590869589999,1005.459250292,1010.7086987089999,1010.7150287919999,1011.9588109169999,1011.960462,1014.892592834,1014.8940433339999,1016.509603625,allgreen,FinalRedContrast,FinalGreenContrast,1016.5107196249999,1018.442922709,2,260506bl,001,2026-05-06_16h23.29.259,priming,,2026.1.3,60.01290289414831,2026-05-06 16h23.29.772513 -0700,
GR_Congruent_GreenCue_GreenProbe_Bottom,GreenGaborBoth.png,RedGaborBoth.png,GreenGaborDisappearBottom.png,RedGaborBoth.png,Green.mp3,green,bottom,37,37,0,,,,0,37,37,11,1018.45877,,,,,,,,,,,,,,,,bottom,,,,,,,,1018.4430385000001,1019.1924146669999,1019.1925779169999,1024.442056084,1024.448512792,1025.692071792,1025.693763417,1026.5759045,1026.576667042,1029.9928687499998,mostlygreen,FinalRedContrast,FinalGreenContrast,1029.993702417,1032.059620042,2,260506bl,001,2026-05-06_16h23.29.259,priming,,2026.1.3,60.01290289414831,2026-05-06 16h23.29.772513 -0700,
GR_Congruent_GreenCue_GreenProbe_Bottom,GreenGaborBoth.png,RedGaborBoth.png,GreenGaborDisappearBottom.png,RedGaborBoth.png,Green.mp3,green,bottom,38,38,0,,,,0,38,38,51,1032.075417334,,,,,,,,,,,,,,,,bottom,,,,,,,,1032.059715209,1042.2090880839999,1042.209249667,1047.4588885419998,1047.4653867499999,1048.708900792,1048.710993834,1051.0759732919998,1051.077356084,1053.076392,mostlygreen,FinalRedContrast,FinalGreenContrast,1053.0773287089999,1068.243084834,2,260506bl,001,2026-05-06_16h23.29.259,priming,,2026.1.3,60.01290289414831,2026-05-06 16h23.29.772513 -0700,
GG_non_riv_catch_RedCue_GreenProbe_Top,GreenGaborBoth.png,Blank.png,GreenGaborDisappearTop.png,Blank.png,Red.mp3,red,top,39,39,0,,,,0,39,39,76,1068.258901209,,,,,,,,,,,,,,,,top,,,,,,,,1068.244888084,1069.2259385,1069.2261034169999,1074.475517459,1074.4809781249999,1075.725690042,1075.727565792,1076.4593781669998,1076.460493042,1078.259811709,allgreen,FinalRedContrast,FinalGreenContrast,1078.260951875,1080.576431625,1,260506bl,001,2026-05-06_16h23.29.259,priming,,2026.1.3,60.01290289414831,2026-05-06 16h23.29.772513 -0700,
GR_Congruent_GreenCue_GreenProbe_Bottom,GreenGaborBoth.png,RedGaborBoth.png,GreenGaborDisappearBottom.png,RedGaborBoth.png,Green.mp3,green,bottom,40,40,0,,,,0,40,40,59,1080.592163292,,,,,,,,,,,,,,,,bottom,,,,,,,,1080.578303625,1081.475984334,1081.476147167,1086.725609584,1086.732067292,1087.9757756669999,1087.977447584,1089.3427306669998,1089.34433675,1090.309860625,mostlygreen,FinalRedContrast,FinalGreenContrast,1090.310906084,1092.710389584,2,260506bl,001,2026-05-06_16h23.29.259,priming,,2026.1.3,60.01290289414831,2026-05-06 16h23.29.772513 -0700,
GR_Congruent_RedCue_RedProbe_Top,GreenGaborBoth.png,RedGaborBoth.png,GreenGaborBoth.png,RedGaborDisappearTop.png,Red.mp3,red,top,41,41,0,,,,0,41,41,64,1092.725634375,,,,,,,,,,,,,,,,top,,,,,,,,1092.7119297919999,1093.3760184589999,1093.376181417,1098.625796667,1098.6322685,1099.875642709,1099.877263334,1100.876161167,1100.877763125,1102.2932175419999,mostlyred,FinalRedContrast,FinalGreenContrast,1102.294094584,1103.843244917,1,260506bl,001,2026-05-06_16h23.29.259,priming,,2026.1.3,60.01290289414831,2026-05-06 16h23.29.772513 -0700,
RR_non_riv_catch_GreenCue_RedProbe_Top,Blank.png,RedGaborBoth.png,Blank.png,RedGaborDisappearTop.png,Green.mp3,green,top,42,42,0,,,,0,42,42,74,1103.859079542,,,,,,,,,,,,,,,,top,,,,,,,,1103.8451572919998,1110.7759543749999,1110.7761188749998,1116.025823584,1116.031355959,1117.2757575,1117.277424334,1119.509535209,1119.5108975419998,1120.409873667,allred,FinalRedContrast,FinalGreenContrast,1120.411085834,1121.60994725,1,260506bl,001,2026-05-06_16h23.29.259,priming,,2026.1.3,60.01290289414831,2026-05-06 16h23.29.772513 -0700,
GR_Incongruent_RedCue_GreenProbe_Top,GreenGaborBoth.png,RedGaborBoth.png,GreenGaborDisappearTop.png,RedGaborBoth.png,Red.mp3,red,top,43,43,0,,,,0,43,43,60,1121.625668834,,,,,,,,,,,,,,,,top,,,,,,,,1121.611532875,1122.942721,1122.942883292,1128.192530584,1128.199312042,1129.442425167,1129.44428975,1130.592932542,1130.593951417,1132.043320042,mostlyred,FinalRedContrast,FinalGreenContrast,1132.044277959,1134.710025334,2,260506bl,001,2026-05-06_16h23.29.259,priming,,2026.1.3,60.01290289414831,2026-05-06 16h23.29.772513 -0700,
GR_Incongruent_RedCue_GreenProbe_Top,GreenGaborBoth.png,RedGaborBoth.png,GreenGaborDisappearTop.png,RedGaborBoth.png,Red.mp3,red,top,44,44,0,,,,0,44,44,52,1134.7258139169999,,,,,,,,,,,,,,,,top,,,,,,,,1134.7101236669998,1135.576079625,1135.5762425,1140.825799875,1140.832224167,1142.07584125,1142.077605834,1143.142885875,1143.1443267089999,1144.360029792,mostlygreen,FinalRedContrast,FinalGreenContrast,1144.361220667,1146.493510417,1,260506bl,001,2026-05-06_16h23.29.259,priming,,2026.1.3,60.01290289414831,2026-05-06 16h23.29.772513 -0700,
GR_Congruent_GreenCue_GreenProbe_Top,GreenGaborBoth.png,RedGaborBoth.png,GreenGaborDisappearTop.png,RedGaborBoth.png,Green.mp3,green,top,45,45,0,,,,0,45,45,10,1146.509140167,,,,,,,,,,,,,,,,bottom,,,,,,,,1146.495346584,1147.409482,1147.409645917,1152.6592216669999,1152.667726042,1153.909223792,1153.9106502089999,1155.7263116249999,1155.727930042,1158.193411625,mostlygreen,FinalRedContrast,FinalGreenContrast,1158.194101334,1159.326649584,2,260506bl,001,2026-05-06_16h23.29.259,priming,,2026.1.3,60.01290289414831,2026-05-06 16h23.29.772513 -0700,
GR_Incongruent_GreenCue_RedProbe_Bottom,GreenGaborBoth.png,RedGaborBoth.png,GreenGaborBoth.png,RedGaborDisappearBottom.png,Green.mp3,green,bottom,46,46,0,,,,0,46,46,23,1159.342448542,,,,,,,,,,,,,,,,bottom,,,,,,,,1159.3267504589999,1159.9262282089999,1159.9264005,1165.175845875,1165.183436375,1166.425784292,1166.427814167,1168.309634917,1168.3111535839998,1169.310205584,mostlygreen,FinalRedContrast,FinalGreenContrast,1169.311132459,1171.276842167,2,260506bl,001,2026-05-06_16h23.29.259,priming,,2026.1.3,60.01290289414831,2026-05-06 16h23.29.772513 -0700,
GR_Incongruent_GreenCue_RedProbe_Bottom,GreenGaborBoth.png,RedGaborBoth.png,GreenGaborBoth.png,RedGaborDisappearBottom.png,Green.mp3,green,bottom,47,47,0,,,,0,47,47,31,1171.292494667,,,,,,,,,,,,,,,,bottom,,,,,,,,1171.276939792,1172.826232709,1172.826395667,1178.076021917,1178.082477042,1179.3259065,1179.327609959,1180.359778834,1180.36134625,1181.193400417,mostlygreen,FinalRedContrast,FinalGreenContrast,1181.194795834,1182.210169667,2,260506bl,001,2026-05-06_16h23.29.259,priming,,2026.1.3,60.01290289414831,2026-05-06 16h23.29.772513 -0700,
GG_non_riv_catch_GreenCue_GreenProbe_Top,GreenGaborBoth.png,Blank.png,GreenGaborDisappearTop.png,Blank.png,Green.mp3,green,top,48,48,0,,,,0,48,48,78,1182.2259534999998,,,,,,,,,,,,,,,,top,,,,,,,,1182.210268,1184.509632459,1184.509794959,1189.759272709,1189.765515,1191.009309,1191.0104852919999,1194.276391209,1194.277993375,1195.9768609589999,allgreen,FinalRedContrast,FinalGreenContrast,1195.9775155,1197.5601514999998,2,260506bl,001,2026-05-06_16h23.29.259,priming,,2026.1.3,60.01290289414831,2026-05-06 16h23.29.772513 -0700,
RR_non_riv_catch_RedCue_RedProbe_Top,Blank.png,RedGaborBoth.png,Blank.png,RedGaborDisappearTop.png,Red.mp3,red,top,49,49,0,,,,0,49,49,72,1197.575857042,,,,,,,,,,,,,,,,top,,,,,,,,1197.5618333749999,1198.89287425,1198.893038334,1204.1425565,1204.149148875,1205.392615709,1205.3940372499999,1207.09346825,1207.0943985,1208.3601725839999,allred,FinalRedContrast,FinalGreenContrast,1208.3613492089999,1210.343557125,2,260506bl,001,2026-05-06_16h23.29.259,priming,,2026.1.3,60.01290289414831,2026-05-06 16h23.29.772513 -0700,
GR_Congruent_GreenCue_GreenProbe_Top,GreenGaborBoth.png,RedGaborBoth.png,GreenGaborDisappearTop.png,RedGaborBoth.png,Green.mp3,green,top,50,50,0,,,,0,50,50,66,1210.3593827089999,,,,,,,,,,,,,,,,top,,,,,,,,1210.345503542,1211.226457709,1211.226621417,1216.476096542,1216.482599334,1217.7261638339999,1217.7278839589999,1220.493411834,1220.494782792,1222.660494792,mostlygreen,FinalRedContrast,FinalGreenContrast,1222.661284292,1224.0436037919999,2,260506bl,001,2026-05-06_16h23.29.259,priming,,2026.1.3,60.01290289414831,2026-05-06 16h23.29.772513 -0700,
GR_Incongruent_RedCue_GreenProbe_Top,GreenGaborBoth.png,RedGaborBoth.png,GreenGaborDisappearTop.png,RedGaborBoth.png,Red.mp3,red,top,51,51,0,,,,0,51,51,28,1224.059394917,,,,,,,,,,,,,,,,top,,,,,,,,1224.0455117499998,1225.4264275839998,1225.4265928749999,1230.6759951669999,1230.682572292,1231.926044875,1231.927835084,1236.743206917,1236.745027167,1237.826853709,mostlygreen,FinalRedContrast,FinalGreenContrast,1237.8285920419999,1239.010204584,2,260506bl,001,2026-05-06_16h23.29.259,priming,,2026.1.3,60.01290289414831,2026-05-06 16h23.29.772513 -0700,
RR_non_riv_catch_GreenCue_RedProbe_Bottom,Blank.png,RedGaborBoth.png,Blank.png,RedGaborDisappearBottom.png,Green.mp3,green,bottom,52,52,0,,,,0,52,52,75,1239.0260899999998,,,,,,,,,,,,,,,,bottom,,,,,,,,1239.012116334,1240.109862459,1240.110052625,1245.359429875,1245.366183209,1246.6094277089999,1246.611283542,1247.8265655,1247.828415209,1249.143823917,allred,FinalRedContrast,FinalGreenContrast,1249.1441439589998,1250.92700025,2,260506bl,001,2026-05-06_16h23.29.259,priming,,2026.1.3,60.01290289414831,2026-05-06 16h23.29.772513 -0700,
GR_Congruent_GreenCue_GreenProbe_Top,GreenGaborBoth.png,RedGaborBoth.png,GreenGaborDisappearTop.png,RedGaborBoth.png,Green.mp3,green,top,53,53,0,,,,0,53,53,50,1250.94263925,,,,,,,,,,,,,,,,top,,,,,,,,1250.9270952919999,1251.62658025,1251.626744042,1256.8761895,1256.882620209,1258.126277625,1258.1275062089999,1259.143363459,1259.144661,1259.927084042,evensplit,FinalRedContrast,FinalGreenContrast,1259.928126459,1261.277432167,2,260506bl,001,2026-05-06_16h23.29.259,priming,,2026.1.3,60.01290289414831,2026-05-06 16h23.29.772513 -0700,
GR_Incongruent_RedCue_GreenProbe_Bottom,GreenGaborBoth.png,RedGaborBoth.png,GreenGaborDisappearBottom.png,RedGaborBoth.png,Red.mp3,red,bottom,54,54,0,,,,0,54,54,45,1261.292757875,,,,,,,,,,,,,,,,bottom,,,,,,,,1261.279092042,1262.059915917,1262.060081417,1267.309598292,1267.317154875,1268.559611375,1268.5613289589999,1269.976711,1269.9781907499998,1271.327126625,evensplit,FinalRedContrast,FinalGreenContrast,1271.327415709,1272.9604924169998,2,260506bl,001,2026-05-06_16h23.29.259,priming,,2026.1.3,60.01290289414831,2026-05-06 16h23.29.772513 -0700,
GR_Incongruent_GreenCue_RedProbe_Top,GreenGaborBoth.png,RedGaborBoth.png,GreenGaborBoth.png,RedGaborDisappearTop.png,Green.mp3,green,top,55,55,0,,,,0,55,55,70,1272.976177625,,,,,,,,,,,,,,,,bottom,,,,,,,,1272.96231625,1274.126573584,1274.126736792,1279.376260584,1279.38371425,1280.6262775,1280.6279138339999,1283.277050625,1283.2780720839999,1284.660431584,evensplit,FinalRedContrast,FinalGreenContrast,1284.661629709,1286.393788417,2,260506bl,001,2026-05-06_16h23.29.259,priming,,2026.1.3,60.01290289414831,2026-05-06 16h23.29.772513 -0700,
GR_Congruent_GreenCue_GreenProbe_Bottom,GreenGaborBoth.png,RedGaborBoth.png,GreenGaborDisappearBottom.png,RedGaborBoth.png,Green.mp3,green,bottom,56,56,0,,,,0,56,56,19,1286.409559334,,,,,,,,,,,,,,,,bottom,,,,,,,,1286.393887834,1286.9932764589998,1286.9934396249998,1292.2428869589999,1292.249324709,1293.493078167,1293.494694167,1294.593484875,1294.5949967919998,1295.527230042,mostlygreen,FinalRedContrast,FinalGreenContrast,1295.527629084,1297.1939435,2,260506bl,001,2026-05-06_16h23.29.259,priming,,2026.1.3,60.01290289414831,2026-05-06 16h23.29.772513 -0700,
GR_Congruent_RedCue_RedProbe_Bottom,GreenGaborBoth.png,RedGaborBoth.png,GreenGaborBoth.png,RedGaborDisappearBottom.png,Red.mp3,red,bottom,57,57,0,,,,0,57,57,25,1297.209664084,,,,,,,,,,,,,,,,bottom,,,,,,,,1297.195731709,1298.010055459,1298.010221667,1303.2596759589999,1303.266121042,1304.509714084,1304.5110904169999,1306.376765042,1306.378396459,1308.293856167,mostlygreen,FinalRedContrast,FinalGreenContrast,1308.294850042,1311.510555959,2,260506bl,001,2026-05-06_16h23.29.259,priming,,2026.1.3,60.01290289414831,2026-05-06 16h23.29.772513 -0700,
GR_Incongruent_GreenCue_RedProbe_Top,GreenGaborBoth.png,RedGaborBoth.png,GreenGaborBoth.png,RedGaborDisappearTop.png,Green.mp3,green,top,58,58,0,,,,0,58,58,38,1311.526273334,,,,,,,,,,,,,,,,bottom,,,,,,,,1311.512458209,1312.7600822919999,1312.760245292,1318.0097302919999,1318.016185209,1319.259627375,1319.261605334,1320.8268162089998,1320.8282884999999,1322.44385625,mostlygreen,FinalRedContrast,FinalGreenContrast,1322.444986584,1323.477226625,2,260506bl,001,2026-05-06_16h23.29.259,priming,,2026.1.3,60.01290289414831,2026-05-06 16h23.29.772513 -0700,
RR_non_riv_catch_RedCue_RedProbe_Bottom,Blank.png,RedGaborBoth.png,Blank.png,RedGaborDisappearBottom.png,Red.mp3,red,bottom,59,59,0,,,,0,59,59,73,1323.492969459,,,,,,,,,,,,,,,,bottom,,,,,,,,1323.478876292,1324.676699167,1324.676866625,1329.9263444169999,1329.9318652919999,1331.176352084,1331.178121125,1331.9434886249999,1331.945195334,1333.02720325,allred,FinalRedContrast,FinalGreenContrast,1333.0284286249998,1335.910720792,2,260506bl,001,2026-05-06_16h23.29.259,priming,,2026.1.3,60.01290289414831,2026-05-06 16h23.29.772513 -0700,
GR_Congruent_GreenCue_GreenProbe_Top,GreenGaborBoth.png,RedGaborBoth.png,GreenGaborDisappearTop.png,RedGaborBoth.png,Green.mp3,green,top,60,60,0,,,,0,60,60,58,1335.9264505419999,,,,,,,,,,,,,,,,top,,,,,,,,1335.91254675,1336.510143042,1336.510335292,1341.759884209,1341.7664419589998,1343.009800334,1343.0114893339999,1343.976949834,1343.978439417,1344.760775917,mostlygreen,FinalRedContrast,FinalGreenContrast,1344.761450167,1345.877366792,2,260506bl,001,2026-05-06_16h23.29.259,priming,,2026.1.3,60.01290289414831,2026-05-06 16h23.29.772513 -0700,
GR_Congruent_GreenCue_GreenProbe_Top,GreenGaborBoth.png,RedGaborBoth.png,GreenGaborDisappearTop.png,RedGaborBoth.png,Green.mp3,green,top,61,61,0,,,,0,61,61,42,1345.893020459,,,,,,,,,,,,,,,,top,,,,,,,,1345.877475167,1346.3267906669998,1346.326952709,1351.5763809589998,1351.582833,1352.826515042,1352.828804,1355.0769498339998,1355.0783697919999,1356.627281292,mostlygreen,FinalRedContrast,FinalGreenContrast,1356.6284162089999,1358.2773352919999,2,260506bl,001,2026-05-06_16h23.29.259,priming,,2026.1.3,60.01290289414831,2026-05-06 16h23.29.772513 -0700,
GR_Incongruent_RedCue_GreenProbe_Bottom,GreenGaborBoth.png,RedGaborBoth.png,GreenGaborDisappearBottom.png,RedGaborBoth.png,Red.mp3,red,bottom,62,62,0,,,,0,62,62,53,1358.293004084,,,,,,,,,,,,,,,,bottom,,,,,,,,1358.27901075,1359.1435764169998,1359.1437403749999,1364.393111209,1364.3996487499999,1365.6432708749999,1365.64474325,1367.52690625,1367.528490834,1368.6272998749998,mostlygreen,FinalRedContrast,FinalGreenContrast,1368.628445292,1371.277326959,2,260506bl,001,2026-05-06_16h23.29.259,priming,,2026.1.3,60.01290289414831,2026-05-06 16h23.29.772513 -0700,
GR_Incongruent_GreenCue_RedProbe_Bottom,GreenGaborBoth.png,RedGaborBoth.png,GreenGaborBoth.png,RedGaborDisappearBottom.png,Green.mp3,green,bottom,63,63,0,,,,0,63,63,55,1371.293133125,,,,,,,,,,,,,,,,bottom,,,,,,,,1371.279207667,1372.343526917,1372.343692667,1377.593327709,1377.5997802089998,1378.843321625,1378.844873417,1380.077026042,1380.078518,1381.5275319999998,mostlyred,FinalRedContrast,FinalGreenContrast,1381.527967459,1382.8608095,2,260506bl,001,2026-05-06_16h23.29.259,priming,,2026.1.3,60.01290289414831,2026-05-06 16h23.29.772513 -0700,
GR_Congruent_RedCue_RedProbe_Bottom,GreenGaborBoth.png,RedGaborBoth.png,GreenGaborBoth.png,RedGaborDisappearBottom.png,Red.mp3,red,bottom,64,64,0,,,,0,64,64,49,1382.87662775,,,,,,,,,,,,,,,,bottom,,,,,,,,1382.862432084,1408.0603530839999,1408.0605195419998,1413.310059209,1413.316398625,1414.5599674589998,1414.561462959,1415.510559542,1415.5120266669999,1419.677626625,mostlyred,FinalRedContrast,FinalGreenContrast,1419.6781624589999,1424.777614834,2,260506bl,001,2026-05-06_16h23.29.259,priming,,2026.1.3,60.01290289414831,2026-05-06 16h23.29.772513 -0700,
GR_Incongruent_RedCue_GreenProbe_Bottom,GreenGaborBoth.png,RedGaborBoth.png,GreenGaborDisappearBottom.png,RedGaborBoth.png,Red.mp3,red,bottom,65,65,0,,,,0,65,65,69,1424.793284334,,,,,,,,,,,,,,,,bottom,,,,,,,,1424.777718917,1700.61120375,1700.611367625,1705.8609695419998,1705.869312917,1707.1109908749997,1707.1122385,1708.0280707919999,1708.0295630839998,1709.3284957499998,mostlygreen,FinalRedContrast,FinalGreenContrast,1709.329227042,1715.7951396669998,1,260506bl,001,2026-05-06_16h23.29.259,priming,,2026.1.3,60.01290289414831,2026-05-06 16h23.29.772513 -0700,
GR_Congruent_GreenCue_GreenProbe_Bottom,GreenGaborBoth.png,RedGaborBoth.png,GreenGaborDisappearBottom.png,RedGaborBoth.png,Green.mp3,green,bottom,66,66,0,,,,0,66,66,27,1715.8109272089998,,,,,,,,,,,,,,,,bottom,,,,,,,,1715.7972308749997,1716.361290042,1716.361453875,1721.6109947920002,1721.6172685,1722.8611210420001,1722.8624527499999,1724.344766375,1724.3464433749998,1725.82861175,mostlygreen,FinalRedContrast,FinalGreenContrast,1725.8292867919997,1739.1618311250002,2,260506bl,001,2026-05-06_16h23.29.259,priming,,2026.1.3,60.01290289414831,2026-05-06 16h23.29.772513 -0700,
GR_Incongruent_RedCue_GreenProbe_Top,GreenGaborBoth.png,RedGaborBoth.png,GreenGaborDisappearTop.png,RedGaborBoth.png,Red.mp3,red,top,67,67,0,,,,0,67,67,68,1739.177684084,,,,,,,,,,,,,,,,top,,,,,,,,1739.163478792,1748.8780744590001,1748.878236334,1754.1277472089998,1754.1353322090001,1755.377716792,1755.3796852499997,1756.2114858339999,1756.213065792,1758.628982334,mostlygreen,FinalRedContrast,FinalGreenContrast,1758.629244042,1760.611949084,1,260506bl,001,2026-05-06_16h23.29.259,priming,,2026.1.3,60.01290289414831,2026-05-06 16h23.29.772513 -0700,
GR_Incongruent_RedCue_GreenProbe_Top,GreenGaborBoth.png,RedGaborBoth.png,GreenGaborDisappearTop.png,RedGaborBoth.png,Red.mp3,red,top,68,68,0,,,,0,68,68,44,1760.6276715000001,,,,,,,,,,,,,,,,top,,,,,,,,1760.612044959,1761.3947623339998,1761.394926584,1766.6443966670001,1766.650787792,1767.8944804589999,1767.896024334,1769.4781610839998,1769.479729167,1771.2620033749997,mostlygreen,FinalRedContrast,FinalGreenContrast,1771.2633576669998,1783.6124806249998,1,260506bl,001,2026-05-06_16h23.29.259,priming,,2026.1.3,60.01290289414831,2026-05-06 16h23.29.772513 -0700,
GR_Incongruent_RedCue_GreenProbe_Bottom,GreenGaborBoth.png,RedGaborBoth.png,GreenGaborDisappearBottom.png,RedGaborBoth.png,Red.mp3,red,bottom,69,69,0,,,,0,69,69,13,1783.6276716249997,,,,,,,,,,,,,,,,bottom,,,,,,,,1783.612581792,1784.1282517500001,1784.128415542,1789.377962375,1789.3842739589998,1790.627912917,1790.6296318749999,1791.328314084,1791.329395167,1791.945455459,mostlygreen,FinalRedContrast,FinalGreenContrast,1791.946016042,1793.5787642499997,2,260506bl,001,2026-05-06_16h23.29.259,priming,,2026.1.3,60.01290289414831,2026-05-06 16h23.29.772513 -0700,
GR_Congruent_GreenCue_GreenProbe_Top,GreenGaborBoth.png,RedGaborBoth.png,GreenGaborDisappearTop.png,RedGaborBoth.png,Green.mp3,green,top,70,70,0,,,,0,70,70,26,1793.5944580839998,,,,,,,,,,,,,,,,top,,,,,,,,1793.5806745839998,1794.278100584,1794.2782627919999,1799.5279052919998,1799.534282292,1800.7779884999998,1800.779525959,1802.394973875,1802.3964106249998,1803.0953473749998,mostlygreen,FinalRedContrast,FinalGreenContrast,1803.09651225,1804.22877,2,260506bl,001,2026-05-06_16h23.29.259,priming,,2026.1.3,60.01290289414831,2026-05-06 16h23.29.772513 -0700,
GR_Incongruent_GreenCue_RedProbe_Bottom,GreenGaborBoth.png,RedGaborBoth.png,GreenGaborBoth.png,RedGaborDisappearBottom.png,Green.mp3,green,bottom,71,71,0,,,,0,71,71,7,1804.244547042,,,,,,,,,,,,,,,,bottom,,,,,,,,1804.228866584,1804.8615655840001,1804.86173175,1810.11120375,1810.1179624170002,1811.3612809999997,1811.36333825,1812.5283823749999,1812.5298072919998,1814.0292514169998,mostlygreen,FinalRedContrast,FinalGreenContrast,1814.02950875,1815.1120968339999,1,260506bl,001,2026-05-06_16h23.29.259,priming,,2026.1.3,60.01290289414831,2026-05-06 16h23.29.772513 -0700,
GR_Incongruent_GreenCue_RedProbe_Bottom,GreenGaborBoth.png,RedGaborBoth.png,GreenGaborBoth.png,RedGaborDisappearBottom.png,Green.mp3,green,bottom,72,72,0,,,,0,72,72,39,1815.1279711250002,,,,,,,,,,,,,,,,bottom,,,,,,,,1815.1122439170001,1815.6781562919998,1815.6783185000002,1820.9279156669998,1820.9342866670002,1822.1780122919997,1822.179668334,1823.961649834,1823.963393917,1827.412578875,allgreen,FinalRedContrast,FinalGreenContrast,1827.4128291250001,1829.228909625,1,260506bl,001,2026-05-06_16h23.29.259,priming,,2026.1.3,60.01290289414831,2026-05-06 16h23.29.772513 -0700,
GR_Incongruent_RedCue_GreenProbe_Top,GreenGaborBoth.png,RedGaborBoth.png,GreenGaborDisappearTop.png,RedGaborBoth.png,Red.mp3,red,top,73,73,0,,,,0,73,73,36,1829.2447023339998,,,,,,,,,,,,,,,,top,,,,,,,,1829.230512417,1837.911677459,1837.911841167,1843.16129575,1843.168976917,1844.411448959,1844.4132121249997,1846.228603584,1846.2299432500001,1848.0455439589998,mostlygreen,FinalRedContrast,FinalGreenContrast,1848.046659625,1851.1287971250001,1,260506bl,001,2026-05-06_16h23.29.259,priming,,2026.1.3,60.01290289414831,2026-05-06 16h23.29.772513 -0700,
GR_Congruent_RedCue_RedProbe_Top,GreenGaborBoth.png,RedGaborBoth.png,GreenGaborBoth.png,RedGaborDisappearTop.png,Red.mp3,red,top,74,74,0,,,,0,74,74,16,1851.1445594589998,,,,,,,,,,,,,,,,top,,,,,,,,1851.128944292,1859.495060125,1859.495224,1864.744749917,1864.752158125,1865.994834375,1865.996446292,1867.361941542,1867.3635035,1868.2126958339998,evensplit,FinalRedContrast,FinalGreenContrast,1868.2129386670001,1870.3456962499997,2,260506bl,001,2026-05-06_16h23.29.259,priming,,2026.1.3,60.01290289414831,2026-05-06 16h23.29.772513 -0700,
GR_Incongruent_GreenCue_RedProbe_Top,GreenGaborBoth.png,RedGaborBoth.png,GreenGaborBoth.png,RedGaborDisappearTop.png,Green.mp3,green,top,75,75,0,,,,0,75,75,30,1870.361424125,,,,,,,,,,,,,,,,top,,,,,,,,1870.3475784999998,1870.812155584,1870.8123372090001,1876.0615462499998,1876.067953084,1877.31153325,1877.313161417,1880.4119130000001,1880.4134550420001,1881.7956350419997,mostlygreen,FinalRedContrast,FinalGreenContrast,1881.796761292,1894.2127198340002,1,260506bl,001,2026-05-06_16h23.29.259,priming,,2026.1.3,60.01290289414831,2026-05-06 16h23.29.772513 -0700,
GR_Incongruent_GreenCue_RedProbe_Top,GreenGaborBoth.png,RedGaborBoth.png,GreenGaborBoth.png,RedGaborDisappearTop.png,Green.mp3,green,top,76,76,0,,,,0,76,76,22,1894.22816825,,,,,,,,,,,,,,,,bottom,,,,,,,,1894.212816417,1894.661792792,1894.661958459,1899.911494792,1899.9178865840001,1901.161596792,1901.162851459,1903.562003667,1903.5633785419998,1907.0457572090002,mostlygreen,FinalRedContrast,FinalGreenContrast,1907.046240292,1910.279192667,2,260506bl,001,2026-05-06_16h23.29.259,priming,,2026.1.3,60.01290289414831,2026-05-06 16h23.29.772513 -0700,
GR_Incongruent_GreenCue_RedProbe_Top,GreenGaborBoth.png,RedGaborBoth.png,GreenGaborBoth.png,RedGaborDisappearTop.png,Green.mp3,green,top,77,77,0,,,,0,77,77,46,1910.2949043339997,,,,,,,,,,,,,,,,bottom,,,,,,,,1910.2792900839997,1910.861956375,1910.862143959,1916.111634042,1916.118066917,1917.3616963749998,1917.363381667,1919.545370042,1919.546908042,1922.2128423339998,evensplit,FinalRedContrast,FinalGreenContrast,1922.2131054589997,1924.1291397500001,1,260506bl,001,2026-05-06_16h23.29.259,priming,,2026.1.3,60.01290289414831,2026-05-06 16h23.29.772513 -0700,
GR_Incongruent_GreenCue_RedProbe_Top,GreenGaborBoth.png,RedGaborBoth.png,GreenGaborBoth.png,RedGaborDisappearTop.png,Green.mp3,green,top,78,78,0,,,,0,78,78,54,1924.144808625,,,,,,,,,,,,,,,,bottom,,,,,,,,1924.1292352919997,1924.545302625,1924.545469,1929.795011375,1929.8013753339999,1931.0449474999998,1931.0470855,1934.6454033339999,1934.646686459,1937.5291558749998,evensplit,FinalRedContrast,FinalGreenContrast,1937.529844542,1944.4624674589998,2,260506bl,001,2026-05-06_16h23.29.259,priming,,2026.1.3,60.01290289414831,2026-05-06 16h23.29.772513 -0700,
GR_Congruent_GreenCue_GreenProbe_Top,GreenGaborBoth.png,RedGaborBoth.png,GreenGaborDisappearTop.png,RedGaborBoth.png,Green.mp3,green,top,79,79,0,,,,0,79,79,34,1944.4782177499999,,,,,,,,,,,,,,,,top,,,,,,,,1944.4625625,1945.4454254589998,1945.445590125,1950.6951940420001,1950.7016435419998,1951.9451257499998,1951.947118292,1953.3955037499998,1953.3971387919999,1955.212947584,mostlygreen,FinalRedContrast,FinalGreenContrast,1955.2132776669998,1956.879290959,2,260506bl,001,2026-05-06_16h23.29.259,priming,,2026.1.3,60.01290289414831,2026-05-06 16h23.29.772513 -0700,
GR_Incongruent_RedCue_GreenProbe_Bottom,GreenGaborBoth.png,RedGaborBoth.png,GreenGaborDisappearBottom.png,RedGaborBoth.png,Red.mp3,red,bottom,80,0,1,,,,1,0,80,13,1956.8950428340002,,,,,,,,,,,,,,,,top,,,,,,,,1956.881058542,1965.6121085839998,1965.6122740839999,1970.8617699589997,1970.8693123340001,1972.111799,1972.113446875,1974.278848709,1974.2803851249998,1975.729409459,allred,FinalRedContrast,FinalGreenContrast,1975.7300051250002,1978.479322042,1,260506bl,001,2026-05-06_16h23.29.259,priming,,2026.1.3,60.01290289414831,2026-05-06 16h23.29.772513 -0700,
GR_Incongruent_RedCue_GreenProbe_Bottom,GreenGaborBoth.png,RedGaborBoth.png,GreenGaborDisappearBottom.png,RedGaborBoth.png,Red.mp3,red,bottom,81,1,1,,,,1,1,81,53,1978.4950124169998,,,,,,,,,,,,,,,,bottom,,,,,,,,1978.4794205,1979.4787977089998,1979.47896075,1984.728455917,1984.734805834,1985.9785773339997,1985.979890459,1993.912291125,1993.9137803749998,1999.246028584,mostlygreen,FinalRedContrast,FinalGreenContrast,1999.24728975,2001.746025709,2,260506bl,001,2026-05-06_16h23.29.259,priming,,2026.1.3,60.01290289414831,2026-05-06 16h23.29.772513 -0700,
RR_non_riv_catch_GreenCue_RedProbe_Bottom,Blank.png,RedGaborBoth.png,Blank.png,RedGaborDisappearBottom.png,Green.mp3,green,bottom,82,2,1,,,,1,2,82,75,2001.761794375,,,,,,,,,,,,,,,,bottom,,,,,,,,2001.74803425,2002.1791943340002,2002.179366875,2007.4285311669998,2007.4347447500002,2008.678631,2008.680334542,2009.6289558339997,2009.630003042,2010.512698667,allred,FinalRedContrast,FinalGreenContrast,2010.5138907089997,2011.6460749999999,1,260506bl,001,2026-05-06_16h23.29.259,priming,,2026.1.3,60.01290289414831,2026-05-06 16h23.29.772513 -0700,
GR_Congruent_RedCue_RedProbe_Bottom,GreenGaborBoth.png,RedGaborBoth.png,GreenGaborBoth.png,RedGaborDisappearBottom.png,Red.mp3,red,bottom,83,3,1,,,,1,3,83,33,2011.6618206669998,,,,,,,,,,,,,,,,bottom,,,,,,,,2011.647740792,2012.045597042,2012.045760584,2017.295159,2017.30150975,2018.545256834,2018.5465999169999,2019.5122396250001,2019.514070084,2022.229426917,evensplit,FinalRedContrast,FinalGreenContrast,2022.2299476669998,2025.6628642919998,2,260506bl,001,2026-05-06_16h23.29.259,priming,,2026.1.3,60.01290289414831,2026-05-06 16h23.29.772513 -0700,
GR_Congruent_GreenCue_GreenProbe_Bottom,GreenGaborBoth.png,RedGaborBoth.png,GreenGaborDisappearBottom.png,RedGaborBoth.png,Green.mp3,green,bottom,84,4,1,,,,1,4,84,59,2025.678639375,,,,,,,,,,,,,,,,bottom,,,,,,,,2025.664753917,2025.99573275,2025.995898417,2031.245344709,2031.251754667,2032.495354584,2032.497001334,2034.9125835419998,2034.9139149589998,2040.5628372089998,mostlygreen,FinalRedContrast,FinalGreenContrast,2040.563982542,2040.8795308339998,2,260506bl,001,2026-05-06_16h23.29.259,priming,,2026.1.3,60.01290289414831,2026-05-06 16h23.29.772513 -0700,
GR_Incongruent_RedCue_GreenProbe_Bottom,GreenGaborBoth.png,RedGaborBoth.png,GreenGaborDisappearBottom.png,RedGaborBoth.png,Red.mp3,red,bottom,85,5,1,,,,1,5,85,29,2040.895271834,,,,,,,,,,,,,,,,bottom,,,,,,,,2040.881175875,2041.595997917,2041.596170084,2046.845303542,2046.851748375,2048.095374542,2048.0968215840003,2049.8458172499995,2049.8473826669997,2050.8628079170003,evensplit,FinalRedContrast,FinalGreenContrast,2050.863887875,2052.1795639169995,1,260506bl,001,2026-05-06_16h23.29.259,priming,,2026.1.3,60.01290289414831,2026-05-06 16h23.29.772513 -0700,
GR_Incongruent_RedCue_GreenProbe_Top,GreenGaborBoth.png,RedGaborBoth.png,GreenGaborDisappearTop.png,RedGaborBoth.png,Red.mp3,red,top,86,6,1,,,,1,6,86,52,2052.1952577089996,,,,,,,,,,,,,,,,top,,,,,,,,2052.1796676249996,2052.6955847090003,2052.6957461250004,2057.9453784589996,2057.951744084,2059.195457875,2059.196927584,2061.2791429999997,2061.280258709,2062.8795561670004,mostlygreen,FinalRedContrast,FinalGreenContrast,2062.8805665,2074.746361667,1,260506bl,001,2026-05-06_16h23.29.259,priming,,2026.1.3,60.01290289414831,2026-05-06 16h23.29.772513 -0700,
GR_Incongruent_GreenCue_RedProbe_Top,GreenGaborBoth.png,RedGaborBoth.png,GreenGaborBoth.png,RedGaborDisappearTop.png,Green.mp3,green,top,87,7,1,,,,1,7,87,54,2074.762052084,,,,,,,,,,,,,,,,bottom,,,,,,,,2074.7482505420003,2075.5791290839998,2075.579291334,2080.828818584,2080.8352464170002,2082.0787984589997,2082.0803590839996,2083.396365042,2083.3967260419995,2084.763150459,mostlygreen,FinalRedContrast,FinalGreenContrast,2084.7637589590004,2086.14628825,2,260506bl,001,2026-05-06_16h23.29.259,priming,,2026.1.3,60.01290289414831,2026-05-06 16h23.29.772513 -0700,
GR_Incongruent_GreenCue_RedProbe_Bottom,GreenGaborBoth.png,RedGaborBoth.png,GreenGaborBoth.png,RedGaborDisappearBottom.png,Green.mp3,green,bottom,88,8,1,,,,1,8,88,7,2086.1620675000004,,,,,,,,,,,,,,,,bottom,,,,,,,,2086.1463835839995,2086.645841834,2086.6460165420003,2091.8954987919997,2091.9019234589996,2093.145484459,2093.14716125,2094.679206125,2094.680641625,2095.246417167,mostlygreen,FinalRedContrast,FinalGreenContrast,2095.247127292,2096.6964013340003,1,260506bl,001,2026-05-06_16h23.29.259,priming,,2026.1.3,60.01290289414831,2026-05-06 16h23.29.772513 -0700,
GR_Incongruent_GreenCue_RedProbe_Bottom,GreenGaborBoth.png,RedGaborBoth.png,GreenGaborBoth.png,RedGaborDisappearBottom.png,Green.mp3,green,bottom,89,9,1,,,,1,9,89,15,2096.712028125,,,,,,,,,,,,,,,,top,,,,,,,,2096.696521459,2097.0291345839996,2097.0292972919997,2102.278807167,2102.2851628749995,2103.5288589169995,2103.530556167,2105.9127399999998,2105.9142067499997,2106.9963620420003,mostlygreen,FinalRedContrast,FinalGreenContrast,2106.9975808749996,2108.496451584,2,260506bl,001,2026-05-06_16h23.29.259,priming,,2026.1.3,60.01290289414831,2026-05-06 16h23.29.772513 -0700,
GR_Congruent_RedCue_RedProbe_Bottom,GreenGaborBoth.png,RedGaborBoth.png,GreenGaborBoth.png,RedGaborDisappearBottom.png,Red.mp3,red,bottom,90,10,1,,,,1,10,90,41,2108.5122627089995,,,,,,,,,,,,,,,,bottom,,,,,,,,2108.4981025839998,2108.979267334,2108.9794337920002,2114.2289162919997,2114.235313917,2115.478997542,2115.4807599590004,2118.2293659999996,2118.2310894169996,2119.263161459,mostlygreen,FinalRedContrast,FinalGreenContrast,2119.264273834,2121.713143917,2,260506bl,001,2026-05-06_16h23.29.259,priming,,2026.1.3,60.01290289414831,2026-05-06 16h23.29.772513 -0700,
GR_Congruent_RedCue_RedProbe_Bottom,GreenGaborBoth.png,RedGaborBoth.png,GreenGaborBoth.png,RedGaborDisappearBottom.png,Red.mp3,red,bottom,91,11,1,,,,1,11,91,9,2121.72886175,,,,,,,,,,,,,,,,bottom,,,,,,,,2121.7132515840003,2122.3125875839996,2122.3127517499997,2127.5621957920002,2127.5686346249995,2128.8122672090003,2128.814125125,2129.879358125,2129.880978792,2130.8631396250003,mostlygreen,FinalRedContrast,FinalGreenContrast,2130.8638740839997,2132.496548917,2,260506bl,001,2026-05-06_16h23.29.259,priming,,2026.1.3,60.01290289414831,2026-05-06 16h23.29.772513 -0700,
GR_Congruent_GreenCue_GreenProbe_Bottom,GreenGaborBoth.png,RedGaborBoth.png,GreenGaborDisappearBottom.png,RedGaborBoth.png,Green.mp3,green,bottom,92,12,1,,,,1,12,92,35,2132.512137584,,,,,,,,,,,,,,,,bottom,,,,,,,,2132.4984159590003,2132.729310167,2132.729474709,2137.97891525,2137.985242042,2139.2289632499997,2139.2309349589996,2142.662692834,2142.6644115420004,2143.5797524170002,allgreen,FinalRedContrast,FinalGreenContrast,2143.580876209,2147.1966141249995,2,260506bl,001,2026-05-06_16h23.29.259,priming,,2026.1.3,60.01290289414831,2026-05-06 16h23.29.772513 -0700,
GR_Incongruent_GreenCue_RedProbe_Bottom,GreenGaborBoth.png,RedGaborBoth.png,GreenGaborBoth.png,RedGaborDisappearBottom.png,Green.mp3,green,bottom,93,13,1,,,,1,13,93,39,2147.2123838750003,,,,,,,,,,,,,,,,bottom,,,,,,,,2147.1967125419997,2147.462781792,2147.4629437920003,2152.712384292,2152.71873375,2153.962462167,2153.96385225,2155.062850167,2155.0643546250003,2156.163570625,mostlyred,FinalRedContrast,FinalGreenContrast,2156.1639825,2158.42990575,1,260506bl,001,2026-05-06_16h23.29.259,priming,,2026.1.3,60.01290289414831,2026-05-06 16h23.29.772513 -0700,
GR_Incongruent_GreenCue_RedProbe_Top,GreenGaborBoth.png,RedGaborBoth.png,GreenGaborBoth.png,RedGaborDisappearTop.png,Green.mp3,green,top,94,14,1,,,,1,14,94,14,2158.4456605839996,,,,,,,,,,,,,,,,bottom,,,,,,,,2158.4300159590002,2158.76313175,2158.763305959,2164.0124078749996,2164.0189509169995,2165.262420084,2165.2640517090003,2167.462840917,2167.464371375,2168.6299927090004,mostlygreen,FinalRedContrast,FinalGreenContrast,2168.6308650419996,2170.0965177919998,2,260506bl,001,2026-05-06_16h23.29.259,priming,,2026.1.3,60.01290289414831,2026-05-06 16h23.29.772513 -0700,
GR_Incongruent_RedCue_GreenProbe_Bottom,GreenGaborBoth.png,RedGaborBoth.png,GreenGaborDisappearBottom.png,RedGaborBoth.png,Red.mp3,red,bottom,95,15,1,,,,1,15,95,61,2170.112350667,,,,,,,,,,,,,,,,bottom,,,,,,,,2170.0981657089997,2170.5960412920003,2170.596205084,2175.845743084,2175.8521531670003,2177.095772167,2177.0975584999996,2179.2461188750003,2179.247848625,2180.196618125,allgreen,FinalRedContrast,FinalGreenContrast,2180.1970653749995,2182.3801548339998,1,260506bl,001,2026-05-06_16h23.29.259,priming,,2026.1.3,60.01290289414831,2026-05-06 16h23.29.772513 -0700,
GR_Incongruent_GreenCue_RedProbe_Top,GreenGaborBoth.png,RedGaborBoth.png,GreenGaborBoth.png,RedGaborDisappearTop.png,Green.mp3,green,top,96,16,1,,,,1,16,96,38,2182.3956289999996,,,,,,,,,,,,,,,,top,,,,,,,,2182.382044209,2182.729382875,2182.729547084,2187.9792102089996,2187.985582667,2189.229181834,2189.2311170000003,2191.196305667,2191.1973392500004,2192.263284459,mostlyred,FinalRedContrast,FinalGreenContrast,2192.26441375,2194.9800419169997,2,260506bl,001,2026-05-06_16h23.29.259,priming,,2026.1.3,60.01290289414831,2026-05-06 16h23.29.772513 -0700,
GR_Incongruent_RedCue_GreenProbe_Top,GreenGaborBoth.png,RedGaborBoth.png,GreenGaborDisappearTop.png,RedGaborBoth.png,Red.mp3,red,top,97,17,1,,,,1,17,97,28,2194.9958141670004,,,,,,,,,,,,,,,,top,,,,,,,,2194.981685834,2195.462838542,2195.463001125,2200.7125154590003,2200.719949292,2201.9625495,2201.9641959170003,2202.963376459,2202.964077459,2205.280090084,mostlygreen,FinalRedContrast,FinalGreenContrast,2205.2812306670003,2207.846716917,2,260506bl,001,2026-05-06_16h23.29.259,priming,,2026.1.3,60.01290289414831,2026-05-06 16h23.29.772513 -0700,
GR_Congruent_RedCue_RedProbe_Top,GreenGaborBoth.png,RedGaborBoth.png,GreenGaborBoth.png,RedGaborDisappearTop.png,Red.mp3,red,top,98,18,1,,,,1,18,98,64,2207.862453334,,,,,,,,,,,,,,,,bottom,,,,,,,,2207.8468274999996,2208.412799625,2208.412961792,2213.662570167,2213.668913167,2214.9125475419996,2214.914151209,2216.896295292,2216.897824292,2218.5966705419996,allgreen,FinalRedContrast,FinalGreenContrast,2218.597067375,2220.4800330420003,1,260506bl,001,2026-05-06_16h23.29.259,priming,,2026.1.3,60.01290289414831,2026-05-06 16h23.29.772513 -0700,
GR_Congruent_GreenCue_GreenProbe_Bottom,GreenGaborBoth.png,RedGaborBoth.png,GreenGaborDisappearBottom.png,RedGaborBoth.png,Green.mp3,green,bottom,99,19,1,,,,1,19,99,67,2220.4958980419997,,,,,,,,,,,,,,,,bottom,,,,,,,,2220.481918417,2220.946340042,2220.9465063340003,2226.195964709,2226.2035246670002,2227.4459527500003,2227.447711,2229.4130076250003,2229.4144484999997,2230.8468245840004,mostlygreen,FinalRedContrast,FinalGreenContrast,2230.8479245420003,2233.296848709,2,260506bl,001,2026-05-06_16h23.29.259,priming,,2026.1.3,60.01290289414831,2026-05-06 16h23.29.772513 -0700,
GG_non_riv_catch_GreenCue_GreenProbe_Top,GreenGaborBoth.png,Blank.png,GreenGaborDisappearTop.png,Blank.png,Green.mp3,green,top,100,20,1,,,,1,20,100,78,2233.312586625,,,,,,,,,,,,,,,,top,,,,,,,,2233.296945375,2234.0129945420003,2234.0131611670004,2239.262584,2239.268646875,2240.512671042,2240.5143389590003,2241.963133292,2241.9645823749997,2243.280171167,allgreen,FinalRedContrast,FinalGreenContrast,2243.280771459,2245.1134827919996,2,260506bl,001,2026-05-06_16h23.29.259,priming,,2026.1.3,60.01290289414831,2026-05-06 16h23.29.772513 -0700,
GR_Incongruent_RedCue_GreenProbe_Top,GreenGaborBoth.png,RedGaborBoth.png,GreenGaborDisappearTop.png,RedGaborBoth.png,Red.mp3,red,top,101,21,1,,,,1,21,101,36,2245.129354834,,,,,,,,,,,,,,,,top,,,,,,,,2245.1151475839997,2246.746199542,2246.7463622919995,2251.995972959,2252.0023580839998,2253.2460015839997,2253.248068709,2254.8464217089995,2254.8475305,2255.6634834589995,mostlygreen,FinalRedContrast,FinalGreenContrast,2255.66471775,2256.5640055840004,2,260506bl,001,2026-05-06_16h23.29.259,priming,,2026.1.3,60.01290289414831,2026-05-06 16h23.29.772513 -0700,
GR_Congruent_RedCue_RedProbe_Top,GreenGaborBoth.png,RedGaborBoth.png,GreenGaborBoth.png,RedGaborDisappearTop.png,Red.mp3,red,top,102,22,1,,,,1,22,102,24,2256.5792665,,,,,,,,,,,,,,,,bottom,,,,,,,,2256.564101375,2258.3629946250003,2258.3631606669996,2263.6127432089997,2263.619073334,2264.8628049999998,2264.864036084,2266.3965857499998,2266.397360709,2269.0801982089997,mostlygreen,FinalRedContrast,FinalGreenContrast,2269.081192292,2275.1303046249996,2,260506bl,001,2026-05-06_16h23.29.259,priming,,2026.1.3,60.01290289414831,2026-05-06 16h23.29.772513 -0700,
GR_Incongruent_RedCue_GreenProbe_Top,GreenGaborBoth.png,RedGaborBoth.png,GreenGaborDisappearTop.png,RedGaborBoth.png,Red.mp3,red,top,103,23,1,,,,1,23,103,4,2275.14601975,,,,,,,,,,,,,,,,top,,,,,,,,2275.1304005419997,2275.929766417,2275.9299296669997,2281.1794799589998,2281.187216917,2282.429508084,2282.4307748339997,2283.4965596250004,2283.4980867920003,2285.0802088749997,mostlygreen,FinalRedContrast,FinalGreenContrast,2285.081261667,2286.3470261249995,2,260506bl,001,2026-05-06_16h23.29.259,priming,,2026.1.3,60.01290289414831,2026-05-06 16h23.29.772513 -0700,
GR_Congruent_GreenCue_GreenProbe_Bottom,GreenGaborBoth.png,RedGaborBoth.png,GreenGaborDisappearBottom.png,RedGaborBoth.png,Green.mp3,green,bottom,104,24,1,,,,1,24,104,3,2286.362725125,,,,,,,,,,,,,,,,bottom,,,,,,,,2286.3488375839997,2287.5796786250003,2287.579839209,2292.8294520419995,2292.8373126670003,2294.0794560000004,2294.0808014169997,2297.279875792,2297.2814477089996,2298.8302605,mostlygreen,FinalRedContrast,FinalGreenContrast,2298.8318503339997,2302.1803204589996,2,260506bl,001,2026-05-06_16h23.29.259,priming,,2026.1.3,60.01290289414831,2026-05-06 16h23.29.772513 -0700,
GR_Congruent_RedCue_RedProbe_Top,GreenGaborBoth.png,RedGaborBoth.png,GreenGaborBoth.png,RedGaborDisappearTop.png,Red.mp3,red,top,105,25,1,,,,1,25,105,8,2302.196043459,,,,,,,,,,,,,,,,bottom,,,,,,,,2302.1820045839995,2302.863110667,2302.863274417,2308.1130028340003,2308.1205237920003,2309.3629300840003,2309.364306667,2313.496569709,2313.499323125,2314.513821709,allgreen,FinalRedContrast,FinalGreenContrast,2314.514423625,2317.5970882089996,2,260506bl,001,2026-05-06_16h23.29.259,priming,,2026.1.3,60.01290289414831,2026-05-06 16h23.29.772513 -0700,
GR_Congruent_RedCue_RedProbe_Top,GreenGaborBoth.png,RedGaborBoth.png,GreenGaborBoth.png,RedGaborDisappearTop.png,Red.mp3,red,top,106,26,1,,,,1,26,106,16,2317.612877959,,,,,,,,,,,,,,,,bottom,,,,,,,,2317.5971952500004,2318.563157042,2318.56331975,2323.812963917,2323.8193635420002,2325.0628447090003,2325.0646150000002,2326.3800229589997,2326.381056792,2327.247122709,mostlygreen,FinalRedContrast,FinalGreenContrast,2327.2482954589996,2329.263697542,2,260506bl,001,2026-05-06_16h23.29.259,priming,,2026.1.3,60.01290289414831,2026-05-06 16h23.29.772513 -0700,
GR_Congruent_GreenCue_GreenProbe_Top,GreenGaborBoth.png,RedGaborBoth.png,GreenGaborDisappearTop.png,RedGaborBoth.png,Green.mp3,green,top,107,27,1,,,,1,27,107,50,2329.279410542,,,,,,,,,,,,,,,,top,,,,,,,,2329.265566,2330.5965512089997,2330.596714667,2335.846316209,2335.8538668339997,2337.096256084,2337.098307917,2338.0799934999995,2338.0815360839997,2340.3479205840003,mostlygreen,FinalRedContrast,FinalGreenContrast,2340.3481915840002,2341.380474292,2,260506bl,001,2026-05-06_16h23.29.259,priming,,2026.1.3,60.01290289414831,2026-05-06 16h23.29.772513 -0700,
GR_Incongruent_GreenCue_RedProbe_Bottom,GreenGaborBoth.png,RedGaborBoth.png,GreenGaborBoth.png,RedGaborDisappearBottom.png,Green.mp3,green,bottom,108,28,1,,,,1,28,108,31,2341.396206292,,,,,,,,,,,,,,,,bottom,,,,,,,,2341.3805711249997,2342.2632704589996,2342.263437042,2347.513046667,2347.519903042,2348.7630779170004,2348.7642478340003,2350.46353325,2350.465098625,2351.947619542,mostlygreen,FinalRedContrast,FinalGreenContrast,2351.9479117089995,2352.8805692919996,2,260506bl,001,2026-05-06_16h23.29.259,priming,,2026.1.3,60.01290289414831,2026-05-06 16h23.29.772513 -0700,
GR_Congruent_GreenCue_GreenProbe_Top,GreenGaborBoth.png,RedGaborBoth.png,GreenGaborDisappearTop.png,RedGaborBoth.png,Green.mp3,green,top,109,29,1,,,,1,29,109,10,2352.8963715,,,,,,,,,,,,,,,,top,,,,,,,,2352.880664417,2353.846736542,2353.8468985,2359.096353834,2359.1027936250002,2360.346405917,2360.348137209,2362.896710084,2362.898515625,2364.0311763339996,allgreen,FinalRedContrast,FinalGreenContrast,2364.031510209,2371.9476787920003,2,260506bl,001,2026-05-06_16h23.29.259,priming,,2026.1.3,60.01290289414831,2026-05-06 16h23.29.772513 -0700,
GR_Congruent_GreenCue_GreenProbe_Bottom,GreenGaborBoth.png,RedGaborBoth.png,GreenGaborDisappearBottom.png,RedGaborBoth.png,Green.mp3,green,bottom,110,30,1,,,,1,30,110,11,2371.9629604169995,,,,,,,,,,,,,,,,bottom,,,,,,,,2371.9477870419996,2372.530027,2372.530190042,2377.7797024169995,2377.7873037500003,2379.0297194590003,2379.0312991250003,2379.880136834,2379.881240834,2381.080529084,mostlygreen,FinalRedContrast,FinalGreenContrast,2381.081728,2382.080631709,2,260506bl,001,2026-05-06_16h23.29.259,priming,,2026.1.3,60.01290289414831,2026-05-06 16h23.29.772513 -0700,
GR_Congruent_GreenCue_GreenProbe_Top,GreenGaborBoth.png,RedGaborBoth.png,GreenGaborDisappearTop.png,RedGaborBoth.png,Green.mp3,green,top,111,31,1,,,,1,31,111,66,2382.0963276249995,,,,,,,,,,,,,,,,top,,,,,,,,2382.0807372090003,2382.596815084,2382.5969805839995,2387.8464813339997,2387.8530259999998,2389.09650575,2389.0985517500003,2391.146886042,2391.1482292499995,2391.9306592499997,evensplit,FinalRedContrast,FinalGreenContrast,2391.9317442089996,2394.2806644169996,2,260506bl,001,2026-05-06_16h23.29.259,priming,,2026.1.3,60.01290289414831,2026-05-06 16h23.29.772513 -0700,
GR_Congruent_GreenCue_GreenProbe_Top,GreenGaborBoth.png,RedGaborBoth.png,GreenGaborDisappearTop.png,RedGaborBoth.png,Green.mp3,green,top,112,32,1,,,,1,32,112,26,2394.2963601250003,,,,,,,,,,,,,,,,top,,,,,,,,2394.2807698750003,2395.0134872500003,2395.013649542,2400.2633828750004,2400.26995325,2401.5132943749995,2401.5144772920003,2403.163553917,2403.165183,2405.964124125,evensplit,FinalRedContrast,FinalGreenContrast,2405.964766334,2410.464154667,2,260506bl,001,2026-05-06_16h23.29.259,priming,,2026.1.3,60.01290289414831,2026-05-06 16h23.29.772513 -0700,
GR_Congruent_RedCue_RedProbe_Top,GreenGaborBoth.png,RedGaborBoth.png,GreenGaborBoth.png,RedGaborDisappearTop.png,Red.mp3,red,top,113,33,1,,,,1,33,113,0,2410.4797659590004,,,,,,,,,,,,,,,,bottom,,,,,,,,2410.465911542,2417.913471875,2417.9136352919995,2423.1633163340002,2423.170931959,2424.4133779169997,2424.4150485,2425.797091167,2425.798029709,2426.74789375,allgreen,FinalRedContrast,FinalGreenContrast,2426.748164625,2430.714178417,2,260506bl,001,2026-05-06_16h23.29.259,priming,,2026.1.3,60.01290289414831,2026-05-06 16h23.29.772513 -0700,
GR_Incongruent_RedCue_GreenProbe_Bottom,GreenGaborBoth.png,RedGaborBoth.png,GreenGaborDisappearBottom.png,RedGaborBoth.png,Red.mp3,red,bottom,114,34,1,,,,1,34,114,21,2430.729980209,,,,,,,,,,,,,,,,bottom,,,,,,,,2430.7142780840004,2431.1802848340003,2431.180451125,2436.429937875,2436.4362902089997,2437.6799470839997,2437.681707709,2438.9803543340004,2438.981937959,2439.6308714999996,mostlygreen,FinalRedContrast,FinalGreenContrast,2439.631379167,2442.3641256250003,2,260506bl,001,2026-05-06_16h23.29.259,priming,,2026.1.3,60.01290289414831,2026-05-06 16h23.29.772513 -0700,
GR_Congruent_GreenCue_GreenProbe_Bottom,GreenGaborBoth.png,RedGaborBoth.png,GreenGaborDisappearBottom.png,RedGaborBoth.png,Green.mp3,green,bottom,115,35,1,,,,1,35,115,43,2442.379880292,,,,,,,,,,,,,,,,bottom,,,,,,,,2442.3661215419997,2442.8302970839995,2442.830460542,2448.0800017499996,2448.0863655840003,2449.330202792,2449.3311192089996,2451.2136700419996,2451.2148922919996,2451.731160792,evensplit,FinalRedContrast,FinalGreenContrast,2451.7315642089998,2452.830804417,2,260506bl,001,2026-05-06_16h23.29.259,priming,,2026.1.3,60.01290289414831,2026-05-06 16h23.29.772513 -0700,
GR_Incongruent_GreenCue_RedProbe_Bottom,GreenGaborBoth.png,RedGaborBoth.png,GreenGaborBoth.png,RedGaborDisappearBottom.png,Green.mp3,green,bottom,116,36,1,,,,1,36,116,63,2452.8465617089996,,,,,,,,,,,,,,,,bottom,,,,,,,,2452.8309021249997,2457.3969654169996,2457.397128625,2462.6467455419997,2462.6544792920004,2463.8967841249996,2463.8989946250003,2466.147585167,2466.147929709,2466.9976097090002,mostlygreen,FinalRedContrast,FinalGreenContrast,2466.9988225839998,2468.464332417,2,260506bl,001,2026-05-06_16h23.29.259,priming,,2026.1.3,60.01290289414831,2026-05-06 16h23.29.772513 -0700,
GR_Congruent_RedCue_RedProbe_Top,GreenGaborBoth.png,RedGaborBoth.png,GreenGaborBoth.png,RedGaborDisappearTop.png,Red.mp3,red,top,117,37,1,,,,1,37,117,32,2468.480030042,,,,,,,,,,,,,,,,top,,,,,,,,2468.4659126670003,2476.4637869589997,2476.463948875,2481.713448417,2481.7199160419996,2482.9635367089995,2482.9652525419997,2483.7806623750002,2483.782029209,2484.5477835419997,evensplit,FinalRedContrast,FinalGreenContrast,2484.548089959,2485.76429275,2,260506bl,001,2026-05-06_16h23.29.259,priming,,2026.1.3,60.01290289414831,2026-05-06 16h23.29.772513 -0700,
RR_non_riv_catch_RedCue_RedProbe_Top,Blank.png,RedGaborBoth.png,Blank.png,RedGaborDisappearTop.png,Red.mp3,red,top,118,38,1,,,,1,38,118,72,2485.780036542,,,,,,,,,,,,,,,,top,,,,,,,,2485.76440775,2486.19711,2486.1972755839997,2491.446764917,2491.453054625,2492.696799417,2492.698509709,2494.0138314590004,2494.0150111249995,2495.0142584590003,allred,FinalRedContrast,FinalGreenContrast,2495.014990292,2496.3810772919996,2,260506bl,001,2026-05-06_16h23.29.259,priming,,2026.1.3,60.01290289414831,2026-05-06 16h23.29.772513 -0700,
GR_Incongruent_RedCue_GreenProbe_Bottom,GreenGaborBoth.png,RedGaborBoth.png,GreenGaborDisappearBottom.png,RedGaborBoth.png,Red.mp3,red,bottom,119,39,1,,,,1,39,119,5,2496.396716292,,,,,,,,,,,,,,,,bottom,,,,,,,,2496.381174792,2496.7307685839996,2496.7309444169996,2501.980229625,2501.9866952089997,2503.2302971669997,2503.2319268749998,2503.997281125,2503.99870575,2504.7977367920003,mostlygreen,FinalRedContrast,FinalGreenContrast,2504.79891625,2506.7479837089995,2,260506bl,001,2026-05-06_16h23.29.259,priming,,2026.1.3,60.01290289414831,2026-05-06 16h23.29.772513 -0700,
GR_Incongruent_RedCue_GreenProbe_Bottom,GreenGaborBoth.png,RedGaborBoth.png,GreenGaborDisappearBottom.png,RedGaborBoth.png,Red.mp3,red,bottom,120,40,1,,,,1,40,120,37,2506.763474292,,,,,,,,,,,,,,,,bottom,,,,,,,,2506.7481093750002,2507.080575084,2507.0807401250004,2512.3301545000004,2512.3366803749996,2513.5802950839998,2513.58206325,2515.09723975,2515.09920625,2517.681092875,evensplit,FinalRedContrast,FinalGreenContrast,2517.68164075,2519.0310931249996,2,260506bl,001,2026-05-06_16h23.29.259,priming,,2026.1.3,60.01290289414831,2026-05-06 16h23.29.772513 -0700,
GG_non_riv_catch_GreenCue_GreenProbe_Bottom,GreenGaborBoth.png,Blank.png,GreenGaborDisappearBottom.png,Blank.png,Green.mp3,green,bottom,121,41,1,,,,1,41,121,79,2519.04680775,,,,,,,,,,,,,,,,bottom,,,,,,,,2519.0329816249996,2519.7805612499997,2519.780726625,2525.030241792,2525.035559209,2526.2802649590003,2526.2814978750002,2527.530603667,2527.5322890420002,2528.9643942089997,allgreen,FinalRedContrast,FinalGreenContrast,2528.96552925,2530.214428542,2,260506bl,001,2026-05-06_16h23.29.259,priming,,2026.1.3,60.01290289414831,2026-05-06 16h23.29.772513 -0700,
RR_non_riv_catch_RedCue_RedProbe_Bottom,Blank.png,RedGaborBoth.png,Blank.png,RedGaborDisappearBottom.png,Red.mp3,red,bottom,122,42,1,,,,1,42,122,73,2530.2302492090002,,,,,,,,,,,,,,,,bottom,,,,,,,,2530.2160679589997,2530.6305547089996,2530.6307207090003,2535.880168375,2535.8856845419996,2537.1302752499996,2537.131559292,2538.31428425,2538.315301459,2539.897693834,allred,FinalRedContrast,FinalGreenContrast,2539.8988639589998,2540.6478487920003,2,260506bl,001,2026-05-06_16h23.29.259,priming,,2026.1.3,60.01290289414831,2026-05-06 16h23.29.772513 -0700,
GR_Congruent_GreenCue_GreenProbe_Bottom,GreenGaborBoth.png,RedGaborBoth.png,GreenGaborDisappearBottom.png,RedGaborBoth.png,Green.mp3,green,bottom,123,43,1,,,,1,43,123,27,2540.66369925,,,,,,,,,,,,,,,,bottom,,,,,,,,2540.6497440000003,2542.3140526670004,2542.3142162920003,2547.563709917,2547.5701224590002,2548.813746875,2548.8157584170003,2551.5807530419997,2551.582235334,2553.114535834,evensplit,FinalRedContrast,FinalGreenContrast,2553.11559425,2554.8478859589995,2,260506bl,001,2026-05-06_16h23.29.259,priming,,2026.1.3,60.01290289414831,2026-05-06 16h23.29.772513 -0700,
GR_Congruent_RedCue_RedProbe_Bottom,GreenGaborBoth.png,RedGaborBoth.png,GreenGaborBoth.png,RedGaborDisappearBottom.png,Red.mp3,red,bottom,124,44,1,,,,1,44,124,17,2554.8636235840004,,,,,,,,,,,,,,,,bottom,,,,,,,,2554.849674084,2555.3973398750004,2555.397506292,2560.647061292,2560.65356025,2561.8970007919997,2561.8988499999996,2563.530729125,2563.532327584,2565.0812682919995,mostlygreen,FinalRedContrast,FinalGreenContrast,2565.081881209,2567.8645479589995,2,260506bl,001,2026-05-06_16h23.29.259,priming,,2026.1.3,60.01290289414831,2026-05-06 16h23.29.772513 -0700,
GR_Incongruent_GreenCue_RedProbe_Bottom,GreenGaborBoth.png,RedGaborBoth.png,GreenGaborBoth.png,RedGaborDisappearBottom.png,Green.mp3,green,bottom,125,45,1,,,,1,45,125,71,2567.8804310839996,,,,,,,,,,,,,,,,bottom,,,,,,,,2567.8664267920003,2568.7974145,2568.79758125,2574.047063459,2574.05350775,2575.297032167,2575.2989251669997,2576.414147834,2576.4157286669997,2577.3812945419995,mostlygreen,FinalRedContrast,FinalGreenContrast,2577.3816570420004,2578.7646420419997,2,260506bl,001,2026-05-06_16h23.29.259,priming,,2026.1.3,60.01290289414831,2026-05-06 16h23.29.772513 -0700,
GR_Incongruent_GreenCue_RedProbe_Bottom,GreenGaborBoth.png,RedGaborBoth.png,GreenGaborBoth.png,RedGaborDisappearBottom.png,Green.mp3,green,bottom,126,46,1,,,,1,46,126,23,2578.78030425,,,,,,,,,,,,,,,,bottom,,,,,,,,2578.764738125,2579.0306845839996,2579.0308466670003,2584.280464292,2584.2869463750003,2585.5305848750004,2585.532346375,2588.5975980840003,2588.598680667,2590.748108,mostlygreen,FinalRedContrast,FinalGreenContrast,2590.748392417,2592.84800025,2,260506bl,001,2026-05-06_16h23.29.259,priming,,2026.1.3,60.01290289414831,2026-05-06 16h23.29.772513 -0700,
GG_non_riv_catch_RedCue_GreenProbe_Top,GreenGaborBoth.png,Blank.png,GreenGaborDisappearTop.png,Blank.png,Red.mp3,red,top,127,47,1,,,,1,47,127,76,2592.8638493749995,,,,,,,,,,,,,,,,top,,,,,,,,2592.849676834,2593.430797584,2593.430960375,2598.6805345000002,2598.6860365840002,2599.930431709,2599.932082917,2600.7976154999997,2600.799355917,2601.5813054170003,allgreen,FinalRedContrast,FinalGreenContrast,2601.5824984170004,2605.0147246670003,1,260506bl,001,2026-05-06_16h23.29.259,priming,,2026.1.3,60.01290289414831,2026-05-06 16h23.29.772513 -0700,
GR_Incongruent_GreenCue_RedProbe_Bottom,GreenGaborBoth.png,RedGaborBoth.png,GreenGaborBoth.png,RedGaborDisappearBottom.png,Green.mp3,green,bottom,128,48,1,,,,1,48,128,47,2605.030441875,,,,,,,,,,,,,,,,bottom,,,,,,,,2605.0165457089997,2605.4641166250003,2605.4642787499997,2610.713884875,2610.720381542,2611.9638211250003,2611.965592875,2614.3809897089996,2614.382030209,2615.1812775,evensplit,FinalRedContrast,FinalGreenContrast,2615.182436542,2618.1980170839997,2,260506bl,001,2026-05-06_16h23.29.259,priming,,2026.1.3,60.01290289414831,2026-05-06 16h23.29.772513 -0700,
GR_Incongruent_GreenCue_RedProbe_Top,GreenGaborBoth.png,RedGaborBoth.png,GreenGaborBoth.png,RedGaborDisappearTop.png,Green.mp3,green,top,129,49,1,,,,1,49,129,70,2618.213809375,,,,,,,,,,,,,,,,bottom,,,,,,,,2618.1981210000004,2619.047524167,2619.047690167,2624.297289125,2624.303819834,2625.547246667,2625.5487628339997,2627.681046584,2627.6825870840003,2629.1150866669996,mostlygreen,FinalRedContrast,FinalGreenContrast,2629.115388917,2630.6147279589995,2,260506bl,001,2026-05-06_16h23.29.259,priming,,2026.1.3,60.01290289414831,2026-05-06 16h23.29.772513 -0700,
GR_Congruent_GreenCue_GreenProbe_Top,GreenGaborBoth.png,RedGaborBoth.png,GreenGaborDisappearTop.png,RedGaborBoth.png,Green.mp3,green,top,130,50,1,,,,1,50,130,42,2630.630542334,,,,,,,,,,,,,,,,top,,,,,,,,2630.614822959,2631.1142767499996,2631.114440292,2636.3638623340003,2636.3702565000003,2637.6139746669996,2637.6152923339996,2639.1476217500003,2639.1492448749996,2641.881482959,evensplit,FinalRedContrast,FinalGreenContrast,2641.882630209,2643.2147902919996,2,260506bl,001,2026-05-06_16h23.29.259,priming,,2026.1.3,60.01290289414831,2026-05-06 16h23.29.772513 -0700,
GR_Congruent_RedCue_RedProbe_Top,GreenGaborBoth.png,RedGaborBoth.png,GreenGaborBoth.png,RedGaborDisappearTop.png,Red.mp3,red,top,131,51,1,,,,1,51,131,48,2643.2306757919996,,,,,,,,,,,,,,,,bottom,,,,,,,,2643.216424167,2643.9976260000003,2643.9977900840004,2649.2473143340003,2649.2551387089998,2650.497307959,2650.498721084,2653.314363042,2653.316043084,2654.648118542,evensplit,FinalRedContrast,FinalGreenContrast,2654.6495262500002,2655.6147807919997,2,260506bl,001,2026-05-06_16h23.29.259,priming,,2026.1.3,60.01290289414831,2026-05-06 16h23.29.772513 -0700,
GR_Incongruent_GreenCue_RedProbe_Top,GreenGaborBoth.png,RedGaborBoth.png,GreenGaborBoth.png,RedGaborDisappearTop.png,Green.mp3,green,top,132,52,1,,,,1,52,132,30,2655.630556459,,,,,,,,,,,,,,,,bottom,,,,,,,,2655.6166293750002,2656.380969584,2656.381131917,2661.6307326670003,2661.637153875,2662.8807445,2662.882364792,2664.414534417,2664.415512625,2670.2482307499995,evensplit,FinalRedContrast,FinalGreenContrast,2670.2493434999997,2671.2982763339996,2,260506bl,001,2026-05-06_16h23.29.259,priming,,2026.1.3,60.01290289414831,2026-05-06 16h23.29.772513 -0700,
GR_Incongruent_RedCue_GreenProbe_Top,GreenGaborBoth.png,RedGaborBoth.png,GreenGaborDisappearTop.png,RedGaborBoth.png,Red.mp3,red,top,133,53,1,,,,1,53,133,12,2671.3140396669996,,,,,,,,,,,,,,,,top,,,,,,,,2671.299910625,2676.9147394169995,2676.9149387919997,2682.164107625,2682.17045075,2683.4141309999995,2683.4155937919995,2685.731267084,2685.7320986249997,2687.614899542,mostlygreen,FinalRedContrast,FinalGreenContrast,2687.616094375,2689.198272875,2,260506bl,001,2026-05-06_16h23.29.259,priming,,2026.1.3,60.01290289414831,2026-05-06 16h23.29.772513 -0700,
GG_non_riv_catch_RedCue_GreenProbe_Bottom,GreenGaborBoth.png,Blank.png,GreenGaborDisappearBottom.png,Blank.png,Red.mp3,red,bottom,134,54,1,,,,1,54,134,77,2689.213947792,,,,,,,,,,,,,,,,bottom,,,,,,,,2689.1983692920003,2689.7977761250004,2689.7979370840003,2695.047401875,2695.054078542,2696.2974238750003,2696.299121792,2696.9645413749995,2696.9662082920004,2698.29879275,allgreen,FinalRedContrast,FinalGreenContrast,2698.2991359589996,2700.1317468750003,2,260506bl,001,2026-05-06_16h23.29.259,priming,,2026.1.3,60.01290289414831,2026-05-06 16h23.29.772513 -0700,
GR_Congruent_GreenCue_GreenProbe_Bottom,GreenGaborBoth.png,RedGaborBoth.png,GreenGaborDisappearBottom.png,RedGaborBoth.png,Green.mp3,green,bottom,135,55,1,,,,1,55,135,19,2700.147516459,,,,,,,,,,,,,,,,bottom,,,,,,,,2700.133596042,2700.497844042,2700.498006459,2705.7475783339996,2705.754030542,2706.997601084,2706.9992307089997,2708.014625209,2708.016246792,2708.6983947500003,evensplit,FinalRedContrast,FinalGreenContrast,2708.6993437089995,2709.898402125,2,260506bl,001,2026-05-06_16h23.29.259,priming,,2026.1.3,60.01290289414831,2026-05-06 16h23.29.772513 -0700,
GR_Congruent_GreenCue_GreenProbe_Top,GreenGaborBoth.png,RedGaborBoth.png,GreenGaborDisappearTop.png,RedGaborBoth.png,Green.mp3,green,top,136,56,1,,,,1,56,136,2,2709.9141098339996,,,,,,,,,,,,,,,,top,,,,,,,,2709.898498709,2710.2145030419997,2710.214665834,2715.464217959,2715.470600459,2716.714261334,2716.715894125,2718.0312572499997,2718.0323237089997,2718.8987499590003,mostlygreen,FinalRedContrast,FinalGreenContrast,2718.8991889589997,2720.015036209,2,260506bl,001,2026-05-06_16h23.29.259,priming,,2026.1.3,60.01290289414831,2026-05-06 16h23.29.772513 -0700,
GR_Incongruent_RedCue_GreenProbe_Top,GreenGaborBoth.png,RedGaborBoth.png,GreenGaborDisappearTop.png,RedGaborBoth.png,Red.mp3,red,top,137,57,1,,,,1,57,137,60,2720.030852334,,,,,,,,,,,,,,,,top,,,,,,,,2720.016705125,2720.4978899589996,2720.4980525419996,2725.7474952089997,2725.753912917,2726.9975264590003,2726.9992363339998,2728.39797775,2728.39950975,2730.83175125,mostlygreen,FinalRedContrast,FinalGreenContrast,2730.8321277920004,2731.9483731669998,2,260506bl,001,2026-05-06_16h23.29.259,priming,,2026.1.3,60.01290289414831,2026-05-06 16h23.29.772513 -0700,
GR_Congruent_RedCue_RedProbe_Bottom,GreenGaborBoth.png,RedGaborBoth.png,GreenGaborBoth.png,RedGaborDisappearBottom.png,Red.mp3,red,bottom,138,58,1,,,,1,58,138,49,2731.964131875,,,,,,,,,,,,,,,,bottom,,,,,,,,2731.948466875,2732.3478546670003,2732.348016334,2737.5976189169996,2737.605144667,2738.847676292,2738.849223125,2741.0314635839995,2741.0324527499997,2742.8484842919997,mostlygreen,FinalRedContrast,FinalGreenContrast,2742.849612,2745.8822090000003,2,260506bl,001,2026-05-06_16h23.29.259,priming,,2026.1.3,60.01290289414831,2026-05-06 16h23.29.772513 -0700,
RR_non_riv_catch_GreenCue_RedProbe_Top,Blank.png,RedGaborBoth.png,Blank.png,RedGaborDisappearTop.png,Green.mp3,green,top,139,59,1,,,,1,59,139,74,2745.8975654590004,,,,,,,,,,,,,,,,top,,,,,,,,2745.8840017499997,2746.33126775,2746.3314333749995,2751.580900334,2751.5864331249995,2752.8310195840004,2752.8329450419997,2755.3980667919996,2755.3991272499998,2758.648494667,allred,FinalRedContrast,FinalGreenContrast,2758.649572667,2762.081825292,2,260506bl,001,2026-05-06_16h23.29.259,priming,,2026.1.3,60.01290289414831,2026-05-06 16h23.29.772513 -0700,
GR_Congruent_RedCue_RedProbe_Bottom,GreenGaborBoth.png,RedGaborBoth.png,GreenGaborBoth.png,RedGaborDisappearBottom.png,Red.mp3,red,bottom,140,60,1,,,,1,60,140,1,2762.097527084,,,,,,,,,,,,,,,,bottom,,,,,,,,2762.083592084,2763.247932667,2763.2480955419996,2768.4976043340002,2768.5040906249997,2769.747596,2769.7493875419996,2771.2147495420004,2771.216495584,2772.2484564999995,mostlygreen,FinalRedContrast,FinalGreenContrast,2772.2492954589998,2773.3652463749995,2,260506bl,001,2026-05-06_16h23.29.259,priming,,2026.1.3,60.01290289414831,2026-05-06 16h23.29.772513 -0700,
GR_Incongruent_GreenCue_RedProbe_Top,GreenGaborBoth.png,RedGaborBoth.png,GreenGaborBoth.png,RedGaborDisappearTop.png,Green.mp3,green,top,141,61,1,,,,1,61,141,22,2773.3808891669996,,,,,,,,,,,,,,,,top,,,,,,,,2773.367064584,2774.381250417,2774.3814136250003,2779.631192125,2779.6376212919995,2780.881383,2780.882384875,2782.26486175,2782.2666357919998,2783.932005042,mostlyred,FinalRedContrast,FinalGreenContrast,2783.932917375,2785.4653103339997,2,260506bl,001,2026-05-06_16h23.29.259,priming,,2026.1.3,60.01290289414831,2026-05-06 16h23.29.772513 -0700,
