label,LstartingStim,RstartingStim,LvisualStim,RvisualStim,audioCue,visualCue,probe_loc,thisN,thisTrialN,thisRepN,staircase.thisTrialN,staircase.stepSize,staircase.intensity,trials.thisRepN,trials.thisTrialN,trials.thisN,trials.thisIndex,thisRow.t,notes,piloting,stim offset,continue_resp.keys,continue_resp.rt,continue_resp.duration,fixation.started,fixation.stopped,greenContrast,redContrast,adjusted_contrast.started,adjusted_contrast.stopped,staircase_response.started,staircase_response.stopped,stair_response,probe_response,staircase.response,prevTrial,isRed,isReversal,cumReversal,contrastArray,contrastAverage,start_trial.started,start_trial.stopped,cue.started,cue.stopped,probe.started,probe.stopped,probe_response.started,probe_response.stopped,subjective_response.started,subjective_response.stopped,subj_response,RedContrast,GreenContrast,vividness_response.started,vividness_response.stopped,vivid_response,participant,session,date,expName,expVersion,psychopyVersion,frameRate,expStart,
,,,,,,,,,,,,,,,,,,,,False,0.35,,,,,,,,,,,,,,,,,,,,,,,,,,,,,,,,,,,,,042126mf,001,2026-04-21_10h21.54.799,priming,,2026.1.3,59.990401651211016,2026-04-21 10h21.55.130806 -0700,
,,,,,,,,,,,,,,,,,,,,,,space,31.226748540997505,None,,,,,,,,,,,,,,,,,,,,,,,,,,,,,,,,,,042126mf,001,2026-04-21_10h21.54.799,priming,,2026.1.3,59.990401651211016,2026-04-21 10h21.55.130806 -0700,
,,,,,,,,,,,0,0.2,0.5,,,,,38.06777058300213,,,,,,,38.05224104100489,39.05123112502042,0.5,0.5,39.05709416602622,40.80134583302424,40.80413479101844,44.51870283301105,mostlyred,red,1,1000,1,0,0,[],0,,,,,,,,,,,,,,,,,042126mf,001,2026-04-21_10h21.54.799,priming,,2026.1.3,59.990401651211016,2026-04-21 10h21.55.130806 -0700,
,,,,,,,,,,,1,0.1,0.3,,,,,44.53467916601221,,,,,,,44.51895179101848,45.518064333009534,0.7,0.3,45.52172287501162,47.26814287502202,47.27082183302264,48.669175458024256,allgreen,green,0,1,0,1,1,[],0,,,,,,,,,,,,,,,,,042126mf,001,2026-04-21_10h21.54.799,priming,,2026.1.3,59.990401651211016,2026-04-21 10h21.55.130806 -0700,
,,,,,,,,,,,2,0.1,0.4,,,,,48.68474645802053,,,,,,,48.669445625011576,49.6680480830255,0.6,0.4,49.671572999999626,51.418332375003956,51.421044833026826,52.61869870801456,mostlygreen,green,0,0,0,0,1,[],0,,,,,,,,,,,,,,,,,042126mf,001,2026-04-21_10h21.54.799,priming,,2026.1.3,59.990401651211016,2026-04-21 10h21.55.130806 -0700,
,,,,,,,,,,,3,0.1,0.5,,,,,52.63457816600567,,,,,,,52.61894229101017,53.61812995802029,0.5,0.5,53.62176700000418,55.36813041602727,55.37145458301529,56.81870004101074,mostlygreen,green,0,0,0,0,1,[],0,,,,,,,,,,,,,,,,,042126mf,001,2026-04-21_10h21.54.799,priming,,2026.1.3,59.990401651211016,2026-04-21 10h21.55.130806 -0700,
,,,,,,,,,,,4,0.1,0.6,,,,,56.83478816601564,,,,,,,56.81894445800572,57.818127000005916,0.4,0.6,57.82171137499972,59.568146583013004,59.57147750002332,60.46867262502201,mostlyred,red,1,0,1,1,2,[],0,,,,,,,,,,,,,,,,,042126mf,001,2026-04-21_10h21.54.799,priming,,2026.1.3,59.990401651211016,2026-04-21 10h21.55.130806 -0700,
,,,,,,,,,,,5,0.05,0.5,,,,,60.484618833026616,,,,,,,60.46891566601698,61.4679550830042,0.5,0.5,61.471446000010474,63.21818883300875,63.220522916002665,64.93552133301273,mostlygreen,green,0,1,0,1,3,[],0,,,,,,,,,,,,,,,,,042126mf,001,2026-04-21_10h21.54.799,priming,,2026.1.3,59.990401651211016,2026-04-21 10h21.55.130806 -0700,
,,,,,,,,,,,6,0.05,0.55,,,,,64.95145516601042,,,,,,,64.93576754099922,65.93482829100685,0.44999999999999996,0.55,65.93860675001633,67.68494695800473,67.68824279101682,69.15319104102673,mostlyred,red,1,0,1,1,4,[],0,,,,,,,,,,,,,,,,,042126mf,001,2026-04-21_10h21.54.799,priming,,2026.1.3,59.990401651211016,2026-04-21 10h21.55.130806 -0700,
,,,,,,,,,,,7,0.05,0.5,,,,,69.16847025000607,,,,,,,69.15349695802433,70.15174916601973,0.5,0.5,70.1566324160085,71.90156562501215,71.90359941602219,73.20225570801995,mostlyred,red,1,1,1,0,4,[],0,,,,,,,,,,,,,,,,,042126mf,001,2026-04-21_10h21.54.799,priming,,2026.1.3,59.990401651211016,2026-04-21 10h21.55.130806 -0700,
,,,,,,,,,,,8,0.025,0.45,,,,,73.21818837500177,,,,,,,73.2025017500273,74.20156020802096,0.55,0.45,74.20589162502438,75.95155575001263,75.95362145800027,76.71883670802345,mostlygreen,green,0,1,0,1,5,[],0,,,,,,,,,,,,,,,,,042126mf,001,2026-04-21_10h21.54.799,priming,,2026.1.3,59.990401651211016,2026-04-21 10h21.55.130806 -0700,
,,,,,,,,,,,9,0.025,0.47500000000000003,,,,,76.7348234160163,,,,,,,76.7190799160162,77.71824691601796,0.5249999999999999,0.47500000000000003,77.72185062500648,79.46815712502575,79.471617083007,80.9188841250143,mostlygreen,green,0,0,0,0,5,[],0,,,,,,,,,,,,,,,,,042126mf,001,2026-04-21_10h21.54.799,priming,,2026.1.3,59.990401651211016,2026-04-21 10h21.55.130806 -0700,
,,,,,,,,,,,10,0.025,0.5,,,,,80.93477095800336,,,,,,,80.91912829101784,81.91822683301871,0.5,0.5,81.9218329580035,83.66808591602603,83.67197033300181,84.35230187501293,mostlygreen,green,0,0,0,0,5,[],0,,,,,,,,,,,,,,,,,042126mf,001,2026-04-21_10h21.54.799,priming,,2026.1.3,59.990401651211016,2026-04-21 10h21.55.130806 -0700,
,,,,,,,,,,,11,0.025,0.525,,,,,84.36813941600849,,,,,,,84.35254962500767,85.35152962501161,0.475,0.525,85.35502825002186,87.1016159580031,87.10481566601084,88.31877395801712,mostlygreen,green,0,0,0,0,5,[],0,,,,,,,,,,,,,,,,,042126mf,001,2026-04-21_10h21.54.799,priming,,2026.1.3,59.990401651211016,2026-04-21 10h21.55.130806 -0700,
,,,,,,,,,,,12,0.025,0.55,,,,,88.33478391601238,,,,,,,88.31901562502026,89.3181925000099,0.44999999999999996,0.55,89.32182391601964,91.06823520801845,91.07130445801886,92.16898666601628,mostlygreen,green,0,0,0,0,5,[],0,,,,,,,,,,,,,,,,,042126mf,001,2026-04-21_10h21.54.799,priming,,2026.1.3,59.990401651211016,2026-04-21 10h21.55.130806 -0700,
,,,,,,,,,,,13,0.025,0.5750000000000001,,,,,92.18480437502149,,,,,,,92.1692326660268,93.16827608301537,0.42499999999999993,0.5750000000000001,93.17191637502401,94.91811016600695,94.921424708009,96.66903308301698,mostlyred,red,1,0,1,1,6,[0.5750000000000001],0.5750000000000001,,,,,,,,,,,,,,,,,042126mf,001,2026-04-21_10h21.54.799,priming,,2026.1.3,59.990401651211016,2026-04-21 10h21.55.130806 -0700,
,,,,,,,,,,,14,0.025,0.55,,,,,96.6848868750094,,,,,,,96.66929320801864,97.66844075001427,0.44999999999999996,0.55,97.6721025830193,99.4182502910262,99.42202458300744,100.10236616601469,mostlyred,red,1,1,1,0,6,[0.5750000000000001],0.5750000000000001,,,,,,,,,,,,,,,,,042126mf,001,2026-04-21_10h21.54.799,priming,,2026.1.3,59.990401651211016,2026-04-21 10h21.55.130806 -0700,
,,,,,,,,,,,15,0.025,0.525,,,,,100.11829316601506,,,,,,,100.10260758301592,101.10171445802553,0.475,0.525,101.10534683300648,102.85163983301027,102.85357283300254,103.81902500000433,mostlygreen,green,0,1,0,1,7,"[0.5750000000000001, 0.525]",0.55,,,,,,,,,,,,,,,,,042126mf,001,2026-04-21_10h21.54.799,priming,,2026.1.3,59.990401651211016,2026-04-21 10h21.55.130806 -0700,
,,,,,,,,,,,16,0.025,0.55,,,,,103.83491929102456,,,,,,,103.81927145802183,104.81825945799937,0.44999999999999996,0.55,104.82182445802027,106.56834404100664,106.57138083301834,107.3857240830257,mostlyred,red,1,0,1,1,8,"[0.5750000000000001, 0.525, 0.55]",0.55,,,,,,,,,,,,,,,,,042126mf,001,2026-04-21_10h21.54.799,priming,,2026.1.3,59.990401651211016,2026-04-21 10h21.55.130806 -0700,
,,,,,,,,,,,17,0.025,0.525,,,,,107.40160112502053,,,,,,,107.38597616602783,108.38497604100849,0.475,0.525,108.38846095802728,110.13509412502754,110.13881241600029,111.0690261250129,mostlyred,red,1,1,1,0,8,"[0.5750000000000001, 0.525, 0.55]",0.55,,,,,,,,,,,,,,,,,042126mf,001,2026-04-21_10h21.54.799,priming,,2026.1.3,59.990401651211016,2026-04-21 10h21.55.130806 -0700,
,,,,,,,,,,,18,0.025,0.5,,,,,111.08498141600285,,,,,,,111.06927345800796,112.06838200002676,0.5,0.5,112.07203154099989,113.81829470800585,113.82229858302162,116.0523880830151,mostlygreen,green,0,1,0,1,9,"[0.5750000000000001, 0.525, 0.55, 0.5]",0.5375000000000001,,,,,,,,,,,,,,,,,042126mf,001,2026-04-21_10h21.54.799,priming,,2026.1.3,59.990401651211016,2026-04-21 10h21.55.130806 -0700,
,,,,,,,,,,,19,0.025,0.525,,,,,116.0681872080022,,,,,,,116.0526376660273,117.05166550001013,0.475,0.525,117.05521675001364,118.80163954102318,118.80349008302437,119.66899295800249,mostlygreen,green,0,0,0,0,9,"[0.5750000000000001, 0.525, 0.55, 0.5]",0.5375000000000001,,,,,,,,,,,,,,,,,042126mf,001,2026-04-21_10h21.54.799,priming,,2026.1.3,59.990401651211016,2026-04-21 10h21.55.130806 -0700,
,,,,,,,,,,,20,0.025,0.55,,,,,119.68493008302175,,,,,,,119.66923825000413,120.6683750830125,0.44999999999999996,0.55,120.67195179100963,122.41838579101022,122.42147216602461,123.46907525000279,mostlyred,red,1,0,1,1,10,"[0.5750000000000001, 0.525, 0.55, 0.5, 0.55]",0.54,,,,,,,,,,,,,,,,,042126mf,001,2026-04-21_10h21.54.799,priming,,2026.1.3,59.990401651211016,2026-04-21 10h21.55.130806 -0700,
,,,,,,,,,,,21,0.025,0.525,,,,,123.48496562501532,,,,,,,123.46932395800832,124.46835066602216,0.475,0.525,124.47199416600051,126.2184757500072,126.22088095801882,127.36916529102018,mostlyred,red,1,1,1,0,10,"[0.5750000000000001, 0.525, 0.55, 0.5, 0.55]",0.54,,,,,,,,,,,,,,,,,042126mf,001,2026-04-21_10h21.54.799,priming,,2026.1.3,59.990401651211016,2026-04-21 10h21.55.130806 -0700,
,,,,,,,,,,,22,0.025,0.5,,,,,127.38501333302702,,,,,,,127.3694110409997,128.3685573330149,0.5,0.5,128.3721927080187,130.11852720801835,130.12088391600992,131.33595291600795,mostlyred,red,1,1,1,0,10,"[0.5750000000000001, 0.525, 0.55, 0.5, 0.55]",0.54,,,,,,,,,,,,,,,,,042126mf,001,2026-04-21_10h21.54.799,priming,,2026.1.3,59.990401651211016,2026-04-21 10h21.55.130806 -0700,
,,,,,,,,,,,23,0.025,0.475,,,,,131.3516479160171,,,,,,,131.33619883301435,132.3351639160246,0.525,0.475,132.33872845800943,134.0851208330132,134.0880355410045,135.46911483301665,mostlyred,red,1,1,1,0,10,"[0.5750000000000001, 0.525, 0.55, 0.5, 0.55]",0.54,,,,,,,,,,,,,,,,,042126mf,001,2026-04-21_10h21.54.799,priming,,2026.1.3,59.990401651211016,2026-04-21 10h21.55.130806 -0700,
,,,,,,,,,,,24,0.025,0.44999999999999996,,,,,135.4850565410161,,,,,,,135.46935975001543,136.4683833750023,0.55,0.44999999999999996,136.4719607080042,138.21865154101397,138.2221789160103,140.18586383300135,mostlyred,red,1,1,1,0,10,"[0.5750000000000001, 0.525, 0.55, 0.5, 0.55]",0.54,,,,,,,,,,,,,,,,,042126mf,001,2026-04-21_10h21.54.799,priming,,2026.1.3,59.990401651211016,2026-04-21 10h21.55.130806 -0700,
,,,,,,,,,,,25,0.025,0.42499999999999993,,,,,140.20169387501664,,,,,,,140.18611225002678,141.18521445800434,0.5750000000000001,0.42499999999999993,141.18870212501497,142.9351655410137,142.93730116600636,143.76921816600952,mostlygreen,green,0,1,0,1,11,"[0.5750000000000001, 0.525, 0.55, 0.5, 0.55, 0.42499999999999993]",0.5208333333333334,,,,,,,,,,,,,,,,,042126mf,001,2026-04-21_10h21.54.799,priming,,2026.1.3,59.990401651211016,2026-04-21 10h21.55.130806 -0700,
,,,,,,,,,,,26,0.025,0.44999999999999996,,,,,143.7851197910204,,,,,,,143.76946637500077,144.76850741601083,0.55,0.44999999999999996,144.77207279100548,146.51836333301617,146.5210185830074,147.50262554100482,mostlygreen,green,0,0,0,0,11,"[0.5750000000000001, 0.525, 0.55, 0.5, 0.55, 0.42499999999999993]",0.5208333333333334,,,,,,,,,,,,,,,,,042126mf,001,2026-04-21_10h21.54.799,priming,,2026.1.3,59.990401651211016,2026-04-21 10h21.55.130806 -0700,
,,,,,,,,,,,27,0.025,0.475,,,,,147.51845429101377,,,,,,,147.50287300001946,148.50183820800157,0.525,0.475,148.50540770802763,150.25182770800893,150.25508820801042,151.33592645800672,mostlygreen,green,0,0,0,0,11,"[0.5750000000000001, 0.525, 0.55, 0.5, 0.55, 0.42499999999999993]",0.5208333333333334,,,,,,,,,,,,,,,,,042126mf,001,2026-04-21_10h21.54.799,priming,,2026.1.3,59.990401651211016,2026-04-21 10h21.55.130806 -0700,
,,,,,,,,,,,28,0.025,0.5,,,,,151.35166400001617,,,,,,,151.33616933302255,152.33526500000153,0.5,0.5,152.3387542500277,154.08529625000665,154.08816766602104,155.01931437500753,mostlygreen,green,0,0,0,0,11,"[0.5750000000000001, 0.525, 0.55, 0.5, 0.55, 0.42499999999999993]",0.5208333333333334,,,,,,,,,,,,,,,,,042126mf,001,2026-04-21_10h21.54.799,priming,,2026.1.3,59.990401651211016,2026-04-21 10h21.55.130806 -0700,
,,,,,,,,,,,29,0.025,0.525,,,,,155.03519191601663,,,,,,,155.0195573750243,156.0186151660164,0.475,0.525,156.02215337500093,157.76850120801828,157.77100387500832,159.28596991600352,mostlyred,red,1,0,1,1,12,"[0.5750000000000001, 0.525, 0.55, 0.5, 0.55, 0.42499999999999993, 0.525]",0.5214285714285715,,,,,,,,,,,,,,,,,042126mf,001,2026-04-21_10h21.54.799,priming,,2026.1.3,59.990401651211016,2026-04-21 10h21.55.130806 -0700,
,,,,,,,,,,,30,0.025,0.5,,,,,159.30187116601155,,,,,,,159.2862170410226,160.28527129100985,0.5,0.5,160.28882416602573,162.0353025830118,162.03835991601227,162.98612608300755,mostlyred,red,1,1,1,0,12,"[0.5750000000000001, 0.525, 0.55, 0.5, 0.55, 0.42499999999999993, 0.525]",0.5214285714285715,,,,,,,,,,,,,,,,,042126mf,001,2026-04-21_10h21.54.799,priming,,2026.1.3,59.990401651211016,2026-04-21 10h21.55.130806 -0700,
,,,,,,,,,,,31,0.025,0.475,,,,,163.00183883300633,,,,,,,162.98638162499992,163.98517545801587,0.525,0.475,163.98878345801495,165.73531225000625,165.73918854101794,167.50262875002227,mostlygreen,green,0,1,0,1,13,"[0.5750000000000001, 0.525, 0.55, 0.5, 0.55, 0.42499999999999993, 0.525, 0.475]",0.515625,,,,,,,,,,,,,,,,,042126mf,001,2026-04-21_10h21.54.799,priming,,2026.1.3,59.990401651211016,2026-04-21 10h21.55.130806 -0700,
,,,,,,,,,,,32,0.025,0.5,,,,,167.51842916602618,,,,,,,167.50287979101995,168.50214100000449,0.5,0.5,168.50579645801918,170.25199225000688,170.2551396250201,171.33592604100704,mostlygreen,green,0,0,0,0,13,"[0.5750000000000001, 0.525, 0.55, 0.5, 0.55, 0.42499999999999993, 0.525, 0.475]",0.515625,,,,,,,,,,,,,,,,,042126mf,001,2026-04-21_10h21.54.799,priming,,2026.1.3,59.990401651211016,2026-04-21 10h21.55.130806 -0700,
,,,,,,,,,,,33,0.025,0.525,,,,,171.35187937502633,,,,,,,171.33617291602422,172.33532941600424,0.475,0.525,172.33889416602324,174.08528345800005,174.08780083301826,174.6859844160208,mostlygreen,green,0,0,0,0,13,"[0.5750000000000001, 0.525, 0.55, 0.5, 0.55, 0.42499999999999993, 0.525, 0.475]",0.515625,,,,,,,,,,,,,,,,,042126mf,001,2026-04-21_10h21.54.799,priming,,2026.1.3,59.990401651211016,2026-04-21 10h21.55.130806 -0700,
,,,,,,,,,,,34,0.025,0.55,,,,,174.7018422500114,,,,,,,174.68622766601038,175.6853016250243,0.44999999999999996,0.55,175.6888381660101,177.43527979101054,177.43786825001007,178.66932741602068,mostlyred,red,1,0,1,1,14,"[0.5750000000000001, 0.525, 0.55, 0.5, 0.55, 0.42499999999999993, 0.525, 0.475, 0.55]",0.5194444444444444,,,,,,,,,,,,,,,,,042126mf,001,2026-04-21_10h21.54.799,priming,,2026.1.3,59.990401651211016,2026-04-21 10h21.55.130806 -0700,
,,,,,,,,,,,35,0.025,0.525,,,,,178.68515875001322,,,,,,,178.66957570801605,179.66861700001755,0.475,0.525,179.67213158300729,181.41871404100675,181.42110975002288,183.2693252080062,mostlyred,red,1,1,1,0,14,"[0.5750000000000001, 0.525, 0.55, 0.5, 0.55, 0.42499999999999993, 0.525, 0.475, 0.55]",0.5194444444444444,,,,,,,,,,,,,,,,,042126mf,001,2026-04-21_10h21.54.799,priming,,2026.1.3,59.990401651211016,2026-04-21 10h21.55.130806 -0700,
,,,,,,,,,,,36,0.025,0.5,,,,,183.2853502910002,,,,,,,183.26957445801236,184.26874379100627,0.5,0.5,184.27228325000033,186.01874758300255,186.02184437500546,187.95274512501783,mostlygreen,green,0,1,0,1,15,"[0.5750000000000001, 0.525, 0.55, 0.5, 0.55, 0.42499999999999993, 0.525, 0.475, 0.55, 0.5]",0.5175,,,,,,,,,,,,,,,,,042126mf,001,2026-04-21_10h21.54.799,priming,,2026.1.3,59.990401651211016,2026-04-21 10h21.55.130806 -0700,
,,,,,,,,,,,37,0.025,0.525,,,,,187.96862304100068,,,,,,,187.95299379102653,188.95213862502715,0.475,0.525,188.95569929102203,190.70210479100933,190.70473645802122,191.75277141600964,mostlyred,red,1,0,1,1,16,"[0.5750000000000001, 0.525, 0.55, 0.5, 0.55, 0.42499999999999993, 0.525, 0.475, 0.55, 0.5, 0.525]",0.5181818181818182,,,,,,,,,,,,,,,,,042126mf,001,2026-04-21_10h21.54.799,priming,,2026.1.3,59.990401651211016,2026-04-21 10h21.55.130806 -0700,
,,,,,,,,,,,38,0.025,0.5,,,,,191.7686748750275,,,,,,,191.7530264580273,192.75208895801916,0.5,0.5,192.75565200002166,194.50205141602783,194.50564250000753,196.16936195801827,mostlygreen,green,0,1,0,1,17,"[0.5750000000000001, 0.525, 0.55, 0.5, 0.55, 0.42499999999999993, 0.525, 0.475, 0.55, 0.5, 0.525, 0.5]",0.5166666666666667,,,,,,,,,,,,,,,,,042126mf,001,2026-04-21_10h21.54.799,priming,,2026.1.3,59.990401651211016,2026-04-21 10h21.55.130806 -0700,
,,,,,,,,,,,39,0.025,0.525,,,,,196.18538987502689,,,,,,,196.1696113330254,197.1687480410037,0.475,0.525,197.17226962500717,198.91884191602003,198.92250370801776,199.8195151660184,mostlygreen,green,0,0,0,0,17,"[0.5750000000000001, 0.525, 0.55, 0.5, 0.55, 0.42499999999999993, 0.525, 0.475, 0.55, 0.5, 0.525, 0.5]",0.5166666666666667,,,,,,,,,,,,,,,,,042126mf,001,2026-04-21_10h21.54.799,priming,,2026.1.3,59.990401651211016,2026-04-21 10h21.55.130806 -0700,
,,,,,,,,,,,40,0.025,0.55,,,,,199.83537300000899,,,,,,,199.81976591600687,200.81862891602213,0.44999999999999996,0.55,200.82220454100752,202.56880762500805,202.5724835000001,203.30280708300415,mostlyred,red,1,0,1,1,18,"[0.5750000000000001, 0.525, 0.55, 0.5, 0.55, 0.42499999999999993, 0.525, 0.475, 0.55, 0.5, 0.525, 0.5, 0.55]",0.5192307692307693,,,,,,,,,,,,,,,,,042126mf,001,2026-04-21_10h21.54.799,priming,,2026.1.3,59.990401651211016,2026-04-21 10h21.55.130806 -0700,
,,,,,,,,,,,41,0.025,0.525,,,,,203.31866491600522,,,,,,,203.3030572500138,204.30201195800328,0.475,0.525,204.30554141601897,206.05212533302256,206.0546217080264,206.51935779102496,mostlyred,red,1,1,1,0,18,"[0.5750000000000001, 0.525, 0.55, 0.5, 0.55, 0.42499999999999993, 0.525, 0.475, 0.55, 0.5, 0.525, 0.5, 0.55]",0.5192307692307693,,,,,,,,,,,,,,,,,042126mf,001,2026-04-21_10h21.54.799,priming,,2026.1.3,59.990401651211016,2026-04-21 10h21.55.130806 -0700,
,,,,,,,,,,,42,0.025,0.5,,,,,206.53528062501573,,,,,,,206.51960612501716,207.51893187500536,0.5,0.5,207.5225257500133,209.26886991600622,209.2724778750271,210.28620000000228,mostlygreen,green,0,1,0,1,19,"[0.5750000000000001, 0.525, 0.55, 0.5, 0.55, 0.42499999999999993, 0.525, 0.475, 0.55, 0.5, 0.525, 0.5, 0.55, 0.5]",0.5178571428571429,,,,,,,,,,,,,,,,,042126mf,001,2026-04-21_10h21.54.799,priming,,2026.1.3,59.990401651211016,2026-04-21 10h21.55.130806 -0700,
,,,,,,,,,,,43,0.025,0.525,,,,,210.30213379100314,,,,,,,210.28644858300686,211.28551658301149,0.475,0.525,211.28907158301445,213.03556695801672,213.038440541015,213.75286041601794,mostlygreen,green,0,0,0,0,19,"[0.5750000000000001, 0.525, 0.55, 0.5, 0.55, 0.42499999999999993, 0.525, 0.475, 0.55, 0.5, 0.525, 0.5, 0.55, 0.5]",0.5178571428571429,,,,,,,,,,,,,,,,,042126mf,001,2026-04-21_10h21.54.799,priming,,2026.1.3,59.990401651211016,2026-04-21 10h21.55.130806 -0700,
,,,,,,,,,,,44,0.025,0.55,,,,,213.76873495802283,,,,,,,213.75311212500674,214.7521909160132,0.44999999999999996,0.55,214.7556961250084,216.5021717910131,216.5056695830135,218.20282083301572,mostlyred,red,1,0,1,1,20,"[0.5750000000000001, 0.525, 0.55, 0.5, 0.55, 0.42499999999999993, 0.525, 0.475, 0.55, 0.5, 0.525, 0.5, 0.55, 0.5, 0.55]",0.52,,,,,,,,,,,,,,,,,042126mf,001,2026-04-21_10h21.54.799,priming,,2026.1.3,59.990401651211016,2026-04-21 10h21.55.130806 -0700,
,,,,,,,,,,,,,,,,,,,,,,space,91.0002887499868,None,,,,,,,,,,,,,,,,,,,,,,,,,,,,,,,,,,042126mf,001,2026-04-21_10h21.54.799,priming,,2026.1.3,59.990401651211016,2026-04-21 10h21.55.130806 -0700,
GR_Incongruent_GreenCue_RedProbe_Top,GreenGaborBoth.png,RedGaborBoth.png,GreenGaborBoth.png,RedGaborDisappearTop.png,Green.mp3,green,top,0,0,0,,,,0,0,0,30,309.28651754101156,,,,,,,,,,,,,,,,top,,,,,,,,309.2793005410058,315.869540625019,315.86970037501305,321.119242500019,321.12744900002144,322.36947191602667,322.3731729580031,323.78644979101955,323.7895936250279,326.2368582500203,mostlygreen,FinalRedContrast,FinalGreenContrast,326.2402368330222,331.2701898330124,2,042126mf,001,2026-04-21_10h21.54.799,priming,,2026.1.3,59.990401651211016,2026-04-21 10h21.55.130806 -0700,
GR_Congruent_GreenCue_GreenProbe_Bottom,GreenGaborBoth.png,RedGaborBoth.png,GreenGaborDisappearBottom.png,RedGaborBoth.png,Green.mp3,green,bottom,1,1,0,,,,0,1,1,35,331.2859197080252,,,,,,,,,,,,,,,,bottom,,,,,,,,331.2703013330174,375.5531939160137,375.5533602500218,380.8029871250037,380.8111391250277,382.0530052500253,382.0549480410118,384.4534327080182,384.4558064160228,386.8038556660176,mostlygreen,FinalRedContrast,FinalGreenContrast,386.8074148330197,392.68749433301855,2,042126mf,001,2026-04-21_10h21.54.799,priming,,2026.1.3,59.990401651211016,2026-04-21 10h21.55.130806 -0700,
GR_Incongruent_GreenCue_RedProbe_Bottom,GreenGaborBoth.png,RedGaborBoth.png,GreenGaborBoth.png,RedGaborDisappearBottom.png,Green.mp3,green,bottom,2,2,0,,,,0,2,2,23,392.70290583302267,,,,,,,,,,,,,,,,bottom,,,,,,,,392.6875979580218,402.3370446250192,402.33724087500013,407.5864265000273,407.5944849580119,408.83670308301225,408.8390692080138,409.953566125012,409.9556885000202,411.43731050001225,allgreen,FinalRedContrast,FinalGreenContrast,411.44058937500813,415.7878143750131,2,042126mf,001,2026-04-21_10h21.54.799,priming,,2026.1.3,59.990401651211016,2026-04-21 10h21.55.130806 -0700,
RR_non_riv_catch_GreenCue_RedProbe_Top,Blank.png,RedGaborBoth.png,Blank.png,RedGaborDisappearTop.png,Green.mp3,green,top,3,3,0,,,,0,3,3,74,415.803102875012,,,,,,,,,,,,,,,,top,,,,,,,,415.78792837500805,418.22010400000727,418.2202707910037,423.4698001250217,423.47780091600725,424.7197681250109,424.7226192910166,426.10349133302225,426.1066177500179,427.57055304100504,allred,FinalRedContrast,FinalGreenContrast,427.5741554580163,430.4372094160062,2,042126mf,001,2026-04-21_10h21.54.799,priming,,2026.1.3,59.990401651211016,2026-04-21 10h21.55.130806 -0700,
GR_Incongruent_GreenCue_RedProbe_Top,GreenGaborBoth.png,RedGaborBoth.png,GreenGaborBoth.png,RedGaborDisappearTop.png,Green.mp3,green,top,4,4,0,,,,0,4,4,62,430.4529201660189,,,,,,,,,,,,,,,,top,,,,,,,,430.43731220799964,432.1701857500011,432.17034941600286,437.41984729102114,437.4274514160061,438.6699172910012,438.6733357500052,439.67070566600887,439.672660250013,442.13741437499993,mostlygreen,FinalRedContrast,FinalGreenContrast,442.14024929102743,445.90430066600675,2,042126mf,001,2026-04-21_10h21.54.799,priming,,2026.1.3,59.990401651211016,2026-04-21 10h21.55.130806 -0700,
GR_Congruent_RedCue_RedProbe_Bottom,GreenGaborBoth.png,RedGaborBoth.png,GreenGaborBoth.png,RedGaborDisappearBottom.png,Red.mp3,red,bottom,5,5,0,,,,0,5,5,57,445.9197008330084,,,,,,,,,,,,,,,,bottom,,,,,,,,445.9060319160053,448.0702612910245,448.07042266600183,453.3199142910016,453.3276394580025,454.56994095802656,454.57275116600795,456.5037805000029,456.50608537500375,459.35398900002474,mostlygreen,FinalRedContrast,FinalGreenContrast,459.3571548750042,462.0373710830172,2,042126mf,001,2026-04-21_10h21.54.799,priming,,2026.1.3,59.990401651211016,2026-04-21 10h21.55.130806 -0700,
GR_Incongruent_RedCue_GreenProbe_Bottom,GreenGaborBoth.png,RedGaborBoth.png,GreenGaborDisappearBottom.png,RedGaborBoth.png,Red.mp3,red,bottom,6,6,0,,,,0,6,6,13,462.0532064580184,,,,,,,,,,,,,,,,bottom,,,,,,,,462.03747295800713,464.4708581660234,464.4710962079989,469.72001300001284,469.7277712500072,470.9699118330027,470.9736655000015,472.403786083014,472.4061941660184,475.93752341601066,mostlygreen,FinalRedContrast,FinalGreenContrast,475.94049366601394,477.7041560409998,2,042126mf,001,2026-04-21_10h21.54.799,priming,,2026.1.3,59.990401651211016,2026-04-21 10h21.55.130806 -0700,
GR_Congruent_GreenCue_GreenProbe_Bottom,GreenGaborBoth.png,RedGaborBoth.png,GreenGaborDisappearBottom.png,RedGaborBoth.png,Green.mp3,green,bottom,7,7,0,,,,0,7,7,59,477.7198197079997,,,,,,,,,,,,,,,,bottom,,,,,,,,477.70604179101065,479.4037249580142,479.4038915000274,484.6533740000159,484.65997812501155,485.90356254100334,485.9067470410082,489.9370772910188,489.93945200002054,492.2041812080133,mostlygreen,FinalRedContrast,FinalGreenContrast,492.2069680830173,493.2375357080018,2,042126mf,001,2026-04-21_10h21.54.799,priming,,2026.1.3,59.990401651211016,2026-04-21 10h21.55.130806 -0700,
GR_Incongruent_RedCue_GreenProbe_Top,GreenGaborBoth.png,RedGaborBoth.png,GreenGaborDisappearTop.png,RedGaborBoth.png,Red.mp3,red,top,8,8,0,,,,0,8,8,4,493.2533391250181,,,,,,,,,,,,,,,,top,,,,,,,,493.2391647500044,494.20363487501163,494.2037963330222,499.45350579102524,499.4616582500166,500.703510500025,500.70659683301346,501.9039312080131,501.9061951250187,502.9210281660198,mostlygreen,FinalRedContrast,FinalGreenContrast,502.92426116601564,504.8375793750165,2,042126mf,001,2026-04-21_10h21.54.799,priming,,2026.1.3,59.990401651211016,2026-04-21 10h21.55.130806 -0700,
GR_Congruent_GreenCue_GreenProbe_Top,GreenGaborBoth.png,RedGaborBoth.png,GreenGaborDisappearTop.png,RedGaborBoth.png,Green.mp3,green,top,9,9,0,,,,0,9,9,58,504.8534139160183,,,,,,,,,,,,,,,,top,,,,,,,,504.83958954102127,507.0873794160143,507.08759404101875,512.3368694160017,512.3434786660073,513.5868081250228,513.5901500830078,515.4372252500034,515.4404368330142,517.0713629160018,mostlygreen,FinalRedContrast,FinalGreenContrast,517.0740031660243,520.1043281250168,2,042126mf,001,2026-04-21_10h21.54.799,priming,,2026.1.3,59.990401651211016,2026-04-21 10h21.55.130806 -0700,
GR_Incongruent_RedCue_GreenProbe_Bottom,GreenGaborBoth.png,RedGaborBoth.png,GreenGaborDisappearBottom.png,RedGaborBoth.png,Red.mp3,red,bottom,10,10,0,,,,0,10,10,37,520.1200876660005,,,,,,,,,,,,,,,,bottom,,,,,,,,520.105980375025,521.6039223330154,521.6040875000181,526.853615,526.8601866250101,528.1035965410119,528.1054290000175,528.9707311660168,528.9731432080152,530.8210736250039,mostlygreen,FinalRedContrast,FinalGreenContrast,530.8245513330039,533.221038083022,2,042126mf,001,2026-04-21_10h21.54.799,priming,,2026.1.3,59.990401651211016,2026-04-21 10h21.55.130806 -0700,
GR_Incongruent_GreenCue_RedProbe_Bottom,GreenGaborBoth.png,RedGaborBoth.png,GreenGaborBoth.png,RedGaborDisappearBottom.png,Green.mp3,green,bottom,11,11,0,,,,0,11,11,15,533.2367305830121,,,,,,,,,,,,,,,,bottom,,,,,,,,533.2230556250142,534.8205540410127,534.820717375027,540.0703260410228,540.0778831250209,541.320191958017,541.3225537080143,543.8712484580174,543.8738580410136,546.1211129580042,mostlygreen,FinalRedContrast,FinalGreenContrast,546.1242315000272,547.7544357500155,2,042126mf,001,2026-04-21_10h21.54.799,priming,,2026.1.3,59.990401651211016,2026-04-21 10h21.55.130806 -0700,
GR_Congruent_GreenCue_GreenProbe_Top,GreenGaborBoth.png,RedGaborBoth.png,GreenGaborDisappearTop.png,RedGaborBoth.png,Green.mp3,green,top,12,12,0,,,,0,12,12,66,547.7701242910116,,,,,,,,,,,,,,,,top,,,,,,,,547.7545364580001,548.6543148330238,548.6544877500273,553.9036607080197,553.9101368330012,555.1536362910119,555.1568088330096,556.7877231250168,556.7905590830196,558.6545525410038,mostlygreen,FinalRedContrast,FinalGreenContrast,558.6579938750074,560.2712311659998,2,042126mf,001,2026-04-21_10h21.54.799,priming,,2026.1.3,59.990401651211016,2026-04-21 10h21.55.130806 -0700,
GR_Congruent_RedCue_RedProbe_Bottom,GreenGaborBoth.png,RedGaborBoth.png,GreenGaborBoth.png,RedGaborDisappearBottom.png,Red.mp3,red,bottom,13,13,0,,,,0,13,13,33,560.2870155830169,,,,,,,,,,,,,,,,bottom,,,,,,,,560.2728824580263,562.1541495410202,562.1543158330023,567.4037236250006,567.4102884580207,568.6537680830224,568.6568644580257,569.4041196660255,569.4063340830035,570.1545429580146,mostlygreen,FinalRedContrast,FinalGreenContrast,570.1577250410046,572.3045651660068,2,042126mf,001,2026-04-21_10h21.54.799,priming,,2026.1.3,59.990401651211016,2026-04-21 10h21.55.130806 -0700,
GR_Congruent_GreenCue_GreenProbe_Top,GreenGaborBoth.png,RedGaborBoth.png,GreenGaborDisappearTop.png,RedGaborBoth.png,Green.mp3,green,top,14,14,0,,,,0,14,14,18,572.3203437080083,,,,,,,,,,,,,,,,top,,,,,,,,572.3065903329989,573.0710458750254,573.0712103330006,578.320450750005,578.3269372500072,579.5703142500133,579.5739930410055,580.8541899160191,580.8573624160199,581.7545197910222,allgreen,FinalRedContrast,FinalGreenContrast,581.7583610000147,584.1045712500054,2,042126mf,001,2026-04-21_10h21.54.799,priming,,2026.1.3,59.990401651211016,2026-04-21 10h21.55.130806 -0700,
GR_Congruent_GreenCue_GreenProbe_Bottom,GreenGaborBoth.png,RedGaborBoth.png,GreenGaborDisappearBottom.png,RedGaborBoth.png,Green.mp3,green,bottom,15,15,0,,,,0,15,15,51,584.120338541019,,,,,,,,,,,,,,,,bottom,,,,,,,,584.1046707080095,585.2206560410268,585.2208227500087,590.4705264160002,590.4771105410182,591.7205791250162,591.7244606250024,594.0044448750268,594.0072861660155,595.8380647500162,allgreen,FinalRedContrast,FinalGreenContrast,595.8410751250049,597.4713668330223,2,042126mf,001,2026-04-21_10h21.54.799,priming,,2026.1.3,59.990401651211016,2026-04-21 10h21.55.130806 -0700,
RR_non_riv_catch_RedCue_RedProbe_Bottom,Blank.png,RedGaborBoth.png,Blank.png,RedGaborDisappearBottom.png,Red.mp3,red,bottom,16,16,0,,,,0,16,16,73,597.4871023750165,,,,,,,,,,,,,,,,bottom,,,,,,,,597.4730212910217,598.6710072499991,598.671172833012,603.920503958012,603.926080041012,605.1704453330021,605.173535333015,606.9709386660252,606.9727439160051,607.7880700830137,allred,FinalRedContrast,FinalGreenContrast,607.7920438330038,609.4047135000001,2,042126mf,001,2026-04-21_10h21.54.799,priming,,2026.1.3,59.990401651211016,2026-04-21 10h21.55.130806 -0700,
GR_Incongruent_RedCue_GreenProbe_Top,GreenGaborBoth.png,RedGaborBoth.png,GreenGaborDisappearTop.png,RedGaborBoth.png,Red.mp3,red,top,17,17,0,,,,0,17,17,36,609.4203865000163,,,,,,,,,,,,,,,,top,,,,,,,,609.4048153750191,610.7709342910093,610.7710966250161,616.0206139160146,616.02720404102,617.2707330410194,617.2741871250037,619.0877421660116,619.0896913330071,621.2214952080103,mostlygreen,FinalRedContrast,FinalGreenContrast,621.2247397500032,624.0380652080057,2,042126mf,001,2026-04-21_10h21.54.799,priming,,2026.1.3,59.990401651211016,2026-04-21 10h21.55.130806 -0700,
GR_Incongruent_GreenCue_RedProbe_Bottom,GreenGaborBoth.png,RedGaborBoth.png,GreenGaborBoth.png,RedGaborDisappearBottom.png,Green.mp3,green,bottom,18,18,0,,,,0,18,18,71,624.0538980000129,,,,,,,,,,,,,,,,bottom,,,,,,,,624.039976125001,624.8044059580134,624.8045726250275,630.0540197080118,630.0607540410128,631.3039668330166,631.3058148750279,632.1544312080077,632.1573296660208,634.3881305000104,mostlygreen,FinalRedContrast,FinalGreenContrast,634.3912149580137,638.2715713330253,2,042126mf,001,2026-04-21_10h21.54.799,priming,,2026.1.3,59.990401651211016,2026-04-21 10h21.55.130806 -0700,
GR_Incongruent_RedCue_GreenProbe_Bottom,GreenGaborBoth.png,RedGaborBoth.png,GreenGaborDisappearBottom.png,RedGaborBoth.png,Red.mp3,red,bottom,19,19,0,,,,0,19,19,53,638.2872337500157,,,,,,,,,,,,,,,,bottom,,,,,,,,638.2732084160089,639.8709851660242,639.8711492500152,645.1205838330206,645.1271002080175,646.3708293330274,646.3740330830042,647.1712509160279,647.1739624580077,649.0219832910225,mostlygreen,FinalRedContrast,FinalGreenContrast,649.0253388750134,650.6716925000073,2,042126mf,001,2026-04-21_10h21.54.799,priming,,2026.1.3,59.990401651211016,2026-04-21 10h21.55.130806 -0700,
GR_Congruent_GreenCue_GreenProbe_Bottom,GreenGaborBoth.png,RedGaborBoth.png,GreenGaborDisappearBottom.png,RedGaborBoth.png,Green.mp3,green,bottom,20,20,0,,,,0,20,20,3,650.6873733750253,,,,,,,,,,,,,,,,bottom,,,,,,,,650.6735489999992,651.7711290000007,651.7712939160119,657.0208097910217,657.0275334580219,658.2708339160017,658.2738430830068,659.221287458,659.223665166006,661.2049607080116,mostlygreen,FinalRedContrast,FinalGreenContrast,661.2089087080094,664.5715801660263,2,042126mf,001,2026-04-21_10h21.54.799,priming,,2026.1.3,59.990401651211016,2026-04-21 10h21.55.130806 -0700,
GG_non_riv_catch_RedCue_GreenProbe_Bottom,GreenGaborBoth.png,Blank.png,GreenGaborDisappearBottom.png,Blank.png,Red.mp3,red,bottom,21,21,0,,,,0,21,21,77,664.5874297500122,,,,,,,,,,,,,,,,bottom,,,,,,,,664.5731866660062,665.5878835410113,665.588051416009,670.8373923330219,670.8437583330087,672.0875326250098,672.0904219160147,673.3711946250114,673.3743047910102,674.9882325000071,allgreen,FinalRedContrast,FinalGreenContrast,674.9912386659998,678.3716930830269,2,042126mf,001,2026-04-21_10h21.54.799,priming,,2026.1.3,59.990401651211016,2026-04-21 10h21.55.130806 -0700,
GR_Congruent_GreenCue_GreenProbe_Bottom,GreenGaborBoth.png,RedGaborBoth.png,GreenGaborDisappearBottom.png,RedGaborBoth.png,Green.mp3,green,bottom,22,22,0,,,,0,22,22,43,678.3875144580088,,,,,,,,,,,,,,,,bottom,,,,,,,,678.3735698750243,681.354844208021,681.3550934160012,686.6042630830198,686.6109266250278,687.8543617500109,687.8580357500177,690.1379878750013,690.1413315410027,692.4551160000265,mostlygreen,FinalRedContrast,FinalGreenContrast,692.4586827080057,694.1051406250044,2,042126mf,001,2026-04-21_10h21.54.799,priming,,2026.1.3,59.990401651211016,2026-04-21 10h21.55.130806 -0700,
GR_Incongruent_RedCue_GreenProbe_Bottom,GreenGaborBoth.png,RedGaborBoth.png,GreenGaborDisappearBottom.png,RedGaborBoth.png,Red.mp3,red,bottom,23,23,0,,,,0,23,23,61,694.1208045000094,,,,,,,,,,,,,,,,bottom,,,,,,,,694.1068027500005,695.2378727500036,695.2380359160015,700.4875595410122,700.4942209160072,701.7376265410276,701.7403943329991,704.055010333017,704.0577769580123,705.9883866660239,mostlygreen,FinalRedContrast,FinalGreenContrast,705.9916268330126,707.3052207080182,2,042126mf,001,2026-04-21_10h21.54.799,priming,,2026.1.3,59.990401651211016,2026-04-21 10h21.55.130806 -0700,
GR_Congruent_GreenCue_GreenProbe_Bottom,GreenGaborBoth.png,RedGaborBoth.png,GreenGaborDisappearBottom.png,RedGaborBoth.png,Green.mp3,green,bottom,24,24,0,,,,0,24,24,67,707.3209726250207,,,,,,,,,,,,,,,,bottom,,,,,,,,707.3071192080097,709.0213350410049,709.0214980410237,714.2709607500001,714.2775491659995,715.5211058330024,715.5246789580269,716.8049606660206,716.8071313750115,718.1385402080195,mostlygreen,FinalRedContrast,FinalGreenContrast,718.1418477500265,720.9052767080138,2,042126mf,001,2026-04-21_10h21.54.799,priming,,2026.1.3,59.990401651211016,2026-04-21 10h21.55.130806 -0700,
GR_Congruent_GreenCue_GreenProbe_Bottom,GreenGaborBoth.png,RedGaborBoth.png,GreenGaborDisappearBottom.png,RedGaborBoth.png,Green.mp3,green,bottom,25,25,0,,,,0,25,25,11,720.9209982500179,,,,,,,,,,,,,,,,bottom,,,,,,,,720.9053796250082,722.1047539580031,722.1049175830267,727.3543578750105,727.3610552080208,728.6043458750064,728.6067966660194,729.6215800410137,729.6248466250254,730.538597833016,allgreen,FinalRedContrast,FinalGreenContrast,730.5420371250075,731.9719420830079,2,042126mf,001,2026-04-21_10h21.54.799,priming,,2026.1.3,59.990401651211016,2026-04-21 10h21.55.130806 -0700,
GR_Incongruent_RedCue_GreenProbe_Top,GreenGaborBoth.png,RedGaborBoth.png,GreenGaborDisappearTop.png,RedGaborBoth.png,Red.mp3,red,top,26,26,0,,,,0,26,26,44,731.9876561660203,,,,,,,,,,,,,,,,top,,,,,,,,731.9738053750189,734.4714144580066,734.4715772080235,739.7211794160248,739.7286916660087,740.9712442500168,740.9740257910162,741.8049332500086,741.8079374160152,743.1886209580116,allgreen,FinalRedContrast,FinalGreenContrast,743.192456290999,744.6719751250057,2,042126mf,001,2026-04-21_10h21.54.799,priming,,2026.1.3,59.990401651211016,2026-04-21 10h21.55.130806 -0700,
GR_Congruent_GreenCue_GreenProbe_Top,GreenGaborBoth.png,RedGaborBoth.png,GreenGaborDisappearTop.png,RedGaborBoth.png,Green.mp3,green,top,27,27,0,,,,0,27,27,34,744.6877709580003,,,,,,,,,,,,,,,,top,,,,,,,,744.6738754160178,746.7548928750039,746.7550567910075,752.0045037910168,752.0110690000001,753.2544474580209,753.2579705000098,754.0383905410126,754.0412474160257,755.5554499580176,allgreen,FinalRedContrast,FinalGreenContrast,755.5585135410074,757.7386961250158,2,042126mf,001,2026-04-21_10h21.54.799,priming,,2026.1.3,59.990401651211016,2026-04-21 10h21.55.130806 -0700,
GR_Congruent_RedCue_RedProbe_Top,GreenGaborBoth.png,RedGaborBoth.png,GreenGaborBoth.png,RedGaborDisappearTop.png,Red.mp3,red,top,28,28,0,,,,0,28,28,16,757.7544819160248,,,,,,,,,,,,,,,,top,,,,,,,,757.7403179160028,760.2386145830096,760.2387885409989,765.4878985410032,765.4956361660152,766.7379782500211,766.7405121660267,768.7717612500128,768.7747840410157,770.8225304160151,allgreen,FinalRedContrast,FinalGreenContrast,770.8254510830157,773.2554514160147,2,042126mf,001,2026-04-21_10h21.54.799,priming,,2026.1.3,59.990401651211016,2026-04-21 10h21.55.130806 -0700,
GR_Incongruent_GreenCue_RedProbe_Top,GreenGaborBoth.png,RedGaborBoth.png,GreenGaborBoth.png,RedGaborDisappearTop.png,Green.mp3,green,top,29,29,0,,,,0,29,29,54,773.271240291011,,,,,,,,,,,,,,,,top,,,,,,,,773.2573794580239,774.1883114580123,774.1884738750232,779.4380249580136,779.4447257080174,780.6880407500139,780.6912626250123,782.3051527080243,782.3085248330026,784.5221125410171,allgreen,FinalRedContrast,FinalGreenContrast,784.526047500025,786.3554431660159,2,042126mf,001,2026-04-21_10h21.54.799,priming,,2026.1.3,59.990401651211016,2026-04-21 10h21.55.130806 -0700,
GR_Congruent_RedCue_RedProbe_Top,GreenGaborBoth.png,RedGaborBoth.png,GreenGaborBoth.png,RedGaborDisappearTop.png,Red.mp3,red,top,30,30,0,,,,0,30,30,56,786.3712546250026,,,,,,,,,,,,,,,,top,,,,,,,,786.3572410830238,787.5883742080186,787.5885402499989,792.838029333012,792.8446749580035,794.0879955000128,794.0912906660233,795.1384553330136,795.1408356660104,796.2054656660184,allgreen,FinalRedContrast,FinalGreenContrast,796.2091151660134,797.3222145830223,2,042126mf,001,2026-04-21_10h21.54.799,priming,,2026.1.3,59.990401651211016,2026-04-21 10h21.55.130806 -0700,
GR_Congruent_RedCue_RedProbe_Top,GreenGaborBoth.png,RedGaborBoth.png,GreenGaborBoth.png,RedGaborDisappearTop.png,Red.mp3,red,top,31,31,0,,,,0,31,31,0,797.3380250830087,,,,,,,,,,,,,,,,top,,,,,,,,797.3223165410163,799.7550873750006,799.7552525830106,805.0047389160027,805.0112802910153,806.2547519580112,806.2581233330129,807.271858083026,807.2750689579989,808.3221924579993,allgreen,FinalRedContrast,FinalGreenContrast,808.3261637500254,810.3890025000146,2,042126mf,001,2026-04-21_10h21.54.799,priming,,2026.1.3,59.990401651211016,2026-04-21 10h21.55.130806 -0700,
GR_Congruent_GreenCue_GreenProbe_Top,GreenGaborBoth.png,RedGaborBoth.png,GreenGaborDisappearTop.png,RedGaborBoth.png,Green.mp3,green,top,32,32,0,,,,0,32,32,50,810.4046848750149,,,,,,,,,,,,,,,,top,,,,,,,,810.3909143750207,811.3553645830252,811.3556034580106,816.6047747500124,816.6125412080146,817.85482925002,817.8581367080042,818.6052480830112,818.6082212080073,820.0222667080234,allgreen,FinalRedContrast,FinalGreenContrast,820.0261316250253,821.4055951250193,2,042126mf,001,2026-04-21_10h21.54.799,priming,,2026.1.3,59.990401651211016,2026-04-21 10h21.55.130806 -0700,
GR_Congruent_RedCue_RedProbe_Bottom,GreenGaborBoth.png,RedGaborBoth.png,GreenGaborBoth.png,RedGaborDisappearBottom.png,Red.mp3,red,bottom,33,33,0,,,,0,33,33,25,821.421320250025,,,,,,,,,,,,,,,,bottom,,,,,,,,821.4072202500247,823.4051392910187,823.4053033330129,828.6547935410053,828.6618058330205,829.9049187500204,829.9068795000203,831.4551975410141,831.4583025830216,832.6223879580211,mostlygreen,FinalRedContrast,FinalGreenContrast,832.6258881660178,833.6056406249991,2,042126mf,001,2026-04-21_10h21.54.799,priming,,2026.1.3,59.990401651211016,2026-04-21 10h21.55.130806 -0700,
GR_Congruent_RedCue_RedProbe_Bottom,GreenGaborBoth.png,RedGaborBoth.png,GreenGaborBoth.png,RedGaborDisappearBottom.png,Red.mp3,red,bottom,34,34,0,,,,0,34,34,17,833.6214032499993,,,,,,,,,,,,,,,,bottom,,,,,,,,833.6057451660163,836.955182833015,836.9553509580146,842.2050120000204,842.2117381250137,843.4548914160114,843.4581805000198,844.2553447500104,844.2587700000149,845.6224032080208,allgreen,FinalRedContrast,FinalGreenContrast,845.625422666024,846.4891013330198,2,042126mf,001,2026-04-21_10h21.54.799,priming,,2026.1.3,59.990401651211016,2026-04-21 10h21.55.130806 -0700,
GR_Incongruent_GreenCue_RedProbe_Top,GreenGaborBoth.png,RedGaborBoth.png,GreenGaborBoth.png,RedGaborDisappearTop.png,Green.mp3,green,top,35,35,0,,,,0,35,35,46,846.5048380830267,,,,,,,,,,,,,,,,top,,,,,,,,846.4910074160143,847.5385924160073,847.5387598330271,852.7881967080175,852.7947873330268,854.0382880000107,854.0410482910229,854.9385612080223,854.9415215410118,856.0057546250173,allgreen,FinalRedContrast,FinalGreenContrast,856.0092226660054,856.7391140000254,2,042126mf,001,2026-04-21_10h21.54.799,priming,,2026.1.3,59.990401651211016,2026-04-21 10h21.55.130806 -0700,
GR_Congruent_RedCue_RedProbe_Top,GreenGaborBoth.png,RedGaborBoth.png,GreenGaborBoth.png,RedGaborDisappearTop.png,Red.mp3,red,top,36,36,0,,,,0,36,36,40,856.7547679580166,,,,,,,,,,,,,,,,top,,,,,,,,856.7407560000138,858.7219550000154,858.7221204160014,863.9717705830117,863.9783919160254,865.2217044580029,865.2251901660056,867.3888102500059,867.390892291005,868.5891252080037,mostlygreen,FinalRedContrast,FinalGreenContrast,868.5929191660252,869.2891511660127,1,042126mf,001,2026-04-21_10h21.54.799,priming,,2026.1.3,59.990401651211016,2026-04-21 10h21.55.130806 -0700,
GR_Congruent_GreenCue_GreenProbe_Top,GreenGaborBoth.png,RedGaborBoth.png,GreenGaborDisappearTop.png,RedGaborBoth.png,Green.mp3,green,top,37,37,0,,,,0,37,37,10,869.3049465410004,,,,,,,,,,,,,,,,top,,,,,,,,869.291049750027,870.805320458021,870.8054857910029,876.0550094160135,876.0627457080118,877.305046500027,877.3088280410157,878.2888217500004,878.2919679580082,879.2058860830148,allgreen,FinalRedContrast,FinalGreenContrast,879.2091582910216,881.0892037500162,2,042126mf,001,2026-04-21_10h21.54.799,priming,,2026.1.3,59.990401651211016,2026-04-21 10h21.55.130806 -0700,
GR_Incongruent_RedCue_GreenProbe_Bottom,GreenGaborBoth.png,RedGaborBoth.png,GreenGaborDisappearBottom.png,RedGaborBoth.png,Red.mp3,red,bottom,38,38,0,,,,0,38,38,45,881.1049231250072,,,,,,,,,,,,,,,,bottom,,,,,,,,881.0908557080256,887.9054381250171,887.9056022910227,893.1551753330277,893.1635130830109,894.4051697500108,894.4075791659998,895.4223049580178,895.4252530000231,896.9560160410183,allgreen,FinalRedContrast,FinalGreenContrast,896.9591446660052,897.8559461250261,2,042126mf,001,2026-04-21_10h21.54.799,priming,,2026.1.3,59.990401651211016,2026-04-21 10h21.55.130806 -0700,
GR_Congruent_RedCue_RedProbe_Top,GreenGaborBoth.png,RedGaborBoth.png,GreenGaborBoth.png,RedGaborDisappearTop.png,Red.mp3,red,top,39,39,0,,,,0,39,39,64,897.8717127080017,,,,,,,,,,,,,,,,top,,,,,,,,897.8560481660243,898.9388472080173,898.9390120830212,904.1884961660253,904.1961195830081,905.4385315410036,905.441731666011,907.3722112500109,907.3755208330113,909.0226952080266,allgreen,FinalRedContrast,FinalGreenContrast,909.0251880830037,914.4393162080087,2,042126mf,001,2026-04-21_10h21.54.799,priming,,2026.1.3,59.990401651211016,2026-04-21 10h21.55.130806 -0700,
GR_Congruent_GreenCue_GreenProbe_Top,GreenGaborBoth.png,RedGaborBoth.png,GreenGaborDisappearTop.png,RedGaborBoth.png,Green.mp3,green,top,40,40,0,,,,0,40,40,42,914.4550370830111,,,,,,,,,,,,,,,,top,,,,,,,,914.441412041022,917.022611458,917.0227825410257,922.2719806660025,922.2797385410231,923.5220506660116,923.5258915410086,924.4557527080178,924.4588274580019,926.10611350002,allgreen,FinalRedContrast,FinalGreenContrast,926.1092742500186,927.3228107910254,2,042126mf,001,2026-04-21_10h21.54.799,priming,,2026.1.3,59.990401651211016,2026-04-21 10h21.55.130806 -0700,
GR_Incongruent_RedCue_GreenProbe_Bottom,GreenGaborBoth.png,RedGaborBoth.png,GreenGaborDisappearBottom.png,RedGaborBoth.png,Red.mp3,red,bottom,41,41,0,,,,0,41,41,5,927.3385763330152,,,,,,,,,,,,,,,,bottom,,,,,,,,927.3244203750219,928.488936291018,928.4891030410072,933.7385845410172,933.7463530829991,934.9886888750189,934.9920546250069,937.0391493330244,937.0412250830268,938.8227666660096,allgreen,FinalRedContrast,FinalGreenContrast,938.8258222910226,940.6727892500057,2,042126mf,001,2026-04-21_10h21.54.799,priming,,2026.1.3,59.990401651211016,2026-04-21 10h21.55.130806 -0700,
GR_Incongruent_GreenCue_RedProbe_Top,GreenGaborBoth.png,RedGaborBoth.png,GreenGaborBoth.png,RedGaborDisappearTop.png,Green.mp3,green,top,42,42,0,,,,0,42,42,70,940.6884410000057,,,,,,,,,,,,,,,,top,,,,,,,,940.6746858330152,943.5889895830187,943.5891583330231,948.8385860830022,948.8462254580227,950.0886170830054,950.0913774160144,951.9557447080151,951.959200708021,952.7561861250142,allgreen,FinalRedContrast,FinalGreenContrast,952.7600357080228,953.9895373330219,2,042126mf,001,2026-04-21_10h21.54.799,priming,,2026.1.3,59.990401651211016,2026-04-21 10h21.55.130806 -0700,
GG_non_riv_catch_GreenCue_GreenProbe_Top,GreenGaborBoth.png,Blank.png,GreenGaborDisappearTop.png,Blank.png,Green.mp3,green,top,43,43,0,,,,0,43,43,78,954.0053325830086,,,,,,,,,,,,,,,,top,,,,,,,,953.989638250001,954.9057698330143,954.9059351660253,960.155407208018,960.1621183750103,961.4054352080275,961.4086395410122,962.4062399160175,962.4088249580236,963.3062705830089,allgreen,FinalRedContrast,FinalGreenContrast,963.3094714160252,965.739610166027,2,042126mf,001,2026-04-21_10h21.54.799,priming,,2026.1.3,59.990401651211016,2026-04-21 10h21.55.130806 -0700,
RR_non_riv_catch_GreenCue_RedProbe_Bottom,Blank.png,RedGaborBoth.png,Blank.png,RedGaborDisappearBottom.png,Green.mp3,green,bottom,44,44,0,,,,0,44,44,75,965.7553618750244,,,,,,,,,,,,,,,,bottom,,,,,,,,965.7397104160045,967.8061818749993,967.8063709160197,973.0554783750267,973.061412333016,974.3054802910192,974.3091681660153,975.5392435830145,975.5412830830028,976.4563232500223,allred,FinalRedContrast,FinalGreenContrast,976.4597072500037,979.973010708025,2,042126mf,001,2026-04-21_10h21.54.799,priming,,2026.1.3,59.990401651211016,2026-04-21 10h21.55.130806 -0700,
GR_Congruent_GreenCue_GreenProbe_Top,GreenGaborBoth.png,RedGaborBoth.png,GreenGaborDisappearTop.png,RedGaborBoth.png,Green.mp3,green,top,45,45,0,,,,0,45,45,2,979.9885930000164,,,,,,,,,,,,,,,,top,,,,,,,,979.973114458,982.7391455830075,982.739309083001,987.9888995410001,987.9953892910271,989.2390043750056,989.2418357910065,990.489248916012,990.4923650830169,992.5564456660068,mostlygreen,FinalRedContrast,FinalGreenContrast,992.5605627500045,994.289729666023,2,042126mf,001,2026-04-21_10h21.54.799,priming,,2026.1.3,59.990401651211016,2026-04-21 10h21.55.130806 -0700,
GR_Incongruent_RedCue_GreenProbe_Top,GreenGaborBoth.png,RedGaborBoth.png,GreenGaborDisappearTop.png,RedGaborBoth.png,Red.mp3,red,top,46,46,0,,,,0,46,46,28,994.3054955000116,,,,,,,,,,,,,,,,top,,,,,,,,994.2913620830222,995.1392602080014,995.1394218330097,1000.3888270410243,1000.3955404160079,1001.638890666014,1001.6408664160117,1002.8230649580073,1002.8236581660167,1004.0730112910096,mostlygreen,FinalRedContrast,FinalGreenContrast,1004.0766039580049,1006.7064135830151,2,042126mf,001,2026-04-21_10h21.54.799,priming,,2026.1.3,59.990401651211016,2026-04-21 10h21.55.130806 -0700,
GR_Incongruent_RedCue_GreenProbe_Top,GreenGaborBoth.png,RedGaborBoth.png,GreenGaborDisappearTop.png,RedGaborBoth.png,Red.mp3,red,top,47,47,0,,,,0,47,47,68,1006.7222057910112,,,,,,,,,,,,,,,,top,,,,,,,,1006.7065142080246,1007.6062754160084,1007.6064464160008,1012.8556830410089,1012.8624981660105,1014.1056011250184,1014.1087517910055,1014.9394187910075,1014.9427754580101,1016.3398752910143,mostlygreen,FinalRedContrast,FinalGreenContrast,1016.3434665829991,1017.256526791025,2,042126mf,001,2026-04-21_10h21.54.799,priming,,2026.1.3,59.990401651211016,2026-04-21 10h21.55.130806 -0700,
GR_Congruent_RedCue_RedProbe_Bottom,GreenGaborBoth.png,RedGaborBoth.png,GreenGaborBoth.png,RedGaborDisappearBottom.png,Red.mp3,red,bottom,48,48,0,,,,0,48,48,49,1017.2722836250032,,,,,,,,,,,,,,,,bottom,,,,,,,,1017.2566431660089,1017.906056125008,1017.9062191250268,1023.1557475000154,1023.1634382080229,1024.4058345410158,1024.4093511660176,1025.739517000009,1025.7428560000262,1026.5732008750201,allgreen,FinalRedContrast,FinalGreenContrast,1026.5764546249993,1027.673198125005,2,042126mf,001,2026-04-21_10h21.54.799,priming,,2026.1.3,59.990401651211016,2026-04-21 10h21.55.130806 -0700,
GR_Congruent_GreenCue_GreenProbe_Top,GreenGaborBoth.png,RedGaborBoth.png,GreenGaborDisappearTop.png,RedGaborBoth.png,Green.mp3,green,top,49,49,0,,,,0,49,49,26,1027.6888784580224,,,,,,,,,,,,,,,,top,,,,,,,,1027.6751673750114,1028.5393733750097,1028.5395391660277,1033.789005166007,1033.7956490410143,1035.0390860830084,1035.042658750026,1035.9894681250153,1035.9922398330236,1036.8232381250127,allgreen,FinalRedContrast,FinalGreenContrast,1036.826494125009,1038.273137333017,2,042126mf,001,2026-04-21_10h21.54.799,priming,,2026.1.3,59.990401651211016,2026-04-21 10h21.55.130806 -0700,
GR_Incongruent_RedCue_GreenProbe_Bottom,GreenGaborBoth.png,RedGaborBoth.png,GreenGaborDisappearBottom.png,RedGaborBoth.png,Red.mp3,red,bottom,50,50,0,,,,0,50,50,69,1038.289029416017,,,,,,,,,,,,,,,,top,,,,,,,,1038.2747926660231,1039.9394104580279,1039.9395772910211,1045.1890473750245,1045.1971361660108,1046.489137666009,1046.4920170000114,1047.2228651250189,1047.2263252910052,1050.1066241250082,mostlygreen,FinalRedContrast,FinalGreenContrast,1050.1101930830046,1052.2733223329997,2,042126mf,001,2026-04-21_10h21.54.799,priming,,2026.1.3,59.990401651211016,2026-04-21 10h21.55.130806 -0700,
GR_Incongruent_GreenCue_RedProbe_Bottom,GreenGaborBoth.png,RedGaborBoth.png,GreenGaborBoth.png,RedGaborDisappearBottom.png,Green.mp3,green,bottom,51,51,0,,,,0,51,51,63,1052.2890462500218,,,,,,,,,,,,,,,,bottom,,,,,,,,1052.2752384160121,1055.7561470000073,1055.756315333012,1061.0059188750165,1061.013549041003,1062.255869500019,1062.2579386660072,1063.056367333018,1063.0594631250133,1063.8065882500086,allgreen,FinalRedContrast,FinalGreenContrast,1063.8097541660245,1065.0066054160125,2,042126mf,001,2026-04-21_10h21.54.799,priming,,2026.1.3,59.990401651211016,2026-04-21 10h21.55.130806 -0700,
GR_Incongruent_RedCue_GreenProbe_Top,GreenGaborBoth.png,RedGaborBoth.png,GreenGaborDisappearTop.png,RedGaborBoth.png,Red.mp3,red,top,52,52,0,,,,0,52,52,12,1065.0223185000068,,,,,,,,,,,,,,,,top,,,,,,,,1065.0082581660245,1067.6394710830064,1067.6396375000186,1072.8890145000187,1072.896138208016,1074.1390890410112,1074.1421720409999,1076.2731819160108,1076.2737810000253,1077.1567394160083,mostlygreen,FinalRedContrast,FinalGreenContrast,1077.1600628330198,1078.5233442080207,2,042126mf,001,2026-04-21_10h21.54.799,priming,,2026.1.3,59.990401651211016,2026-04-21 10h21.55.130806 -0700,
GG_non_riv_catch_RedCue_GreenProbe_Top,GreenGaborBoth.png,Blank.png,GreenGaborDisappearTop.png,Blank.png,Red.mp3,red,top,53,53,0,,,,0,53,53,76,1078.5390985410195,,,,,,,,,,,,,,,,top,,,,,,,,1078.5234564160055,1080.406122416025,1080.4062922910089,1085.6558217500278,1085.6622953750193,1086.9058877080097,1086.9086722909997,1088.1230576660018,1088.1252194580156,1089.2734693750099,allgreen,FinalRedContrast,FinalGreenContrast,1089.2776022910257,1091.0735123750055,2,042126mf,001,2026-04-21_10h21.54.799,priming,,2026.1.3,59.990401651211016,2026-04-21 10h21.55.130806 -0700,
RR_non_riv_catch_RedCue_RedProbe_Top,Blank.png,RedGaborBoth.png,Blank.png,RedGaborDisappearTop.png,Red.mp3,red,top,54,54,0,,,,0,54,54,72,1091.0891570410167,,,,,,,,,,,,,,,,bottom,,,,,,,,1091.0736134160252,1095.6062329580018,1095.606399500015,1100.8559781660151,1100.86300820802,1102.1059710000118,1102.1087656660238,1103.6064788330114,1103.607768958027,1105.7067275410227,allred,FinalRedContrast,FinalGreenContrast,1105.7102486660006,1108.2734761660104,2,042126mf,001,2026-04-21_10h21.54.799,priming,,2026.1.3,59.990401651211016,2026-04-21 10h21.55.130806 -0700,
GR_Incongruent_GreenCue_RedProbe_Bottom,GreenGaborBoth.png,RedGaborBoth.png,GreenGaborBoth.png,RedGaborDisappearBottom.png,Green.mp3,green,bottom,55,55,0,,,,0,55,55,55,1108.2891055000073,,,,,,,,,,,,,,,,bottom,,,,,,,,1108.2754372500058,1113.0397539580008,1113.0399240830156,1118.2895019999996,1118.2971277080069,1119.5395558750024,1119.5422551250085,1120.8064507080126,1120.8096134160005,1122.7401605410269,mostlygreen,FinalRedContrast,FinalGreenContrast,1122.7433904159989,1124.623548375006,2,042126mf,001,2026-04-21_10h21.54.799,priming,,2026.1.3,59.990401651211016,2026-04-21 10h21.55.130806 -0700,
GR_Incongruent_RedCue_GreenProbe_Top,GreenGaborBoth.png,RedGaborBoth.png,GreenGaborDisappearTop.png,RedGaborBoth.png,Red.mp3,red,top,56,56,0,,,,0,56,56,20,1124.6393570000073,,,,,,,,,,,,,,,,top,,,,,,,,1124.6252005830174,1127.1897870410176,1127.189950125001,1132.439296000026,1132.4459316660068,1133.6894481250201,1133.692419708008,1134.406604415999,1134.4095148750057,1135.4068317910132,allgreen,FinalRedContrast,FinalGreenContrast,1135.4108401250269,1137.4401219580031,2,042126mf,001,2026-04-21_10h21.54.799,priming,,2026.1.3,59.990401651211016,2026-04-21 10h21.55.130806 -0700,
GR_Incongruent_GreenCue_RedProbe_Bottom,GreenGaborBoth.png,RedGaborBoth.png,GreenGaborBoth.png,RedGaborDisappearBottom.png,Green.mp3,green,bottom,57,57,0,,,,0,57,57,7,1137.455911875004,,,,,,,,,,,,,,,,bottom,,,,,,,,1137.442126666021,1138.356397333002,1138.356561625027,1143.606179125025,1143.6127425000013,1144.8561886660173,1144.8589752910193,1148.1067665000155,1148.1090073750238,1149.1904071660247,mostlygreen,FinalRedContrast,FinalGreenContrast,1149.1931065000244,1150.1403987080266,2,042126mf,001,2026-04-21_10h21.54.799,priming,,2026.1.3,59.990401651211016,2026-04-21 10h21.55.130806 -0700,
GR_Incongruent_GreenCue_RedProbe_Bottom,GreenGaborBoth.png,RedGaborBoth.png,GreenGaborBoth.png,RedGaborDisappearBottom.png,Green.mp3,green,bottom,58,58,0,,,,0,58,58,31,1150.1561064580164,,,,,,,,,,,,,,,,bottom,,,,,,,,1150.1405008750153,1150.956537916005,1150.956702083,1156.2061728750123,1156.2126449580246,1157.4561457500095,1157.4592012909998,1158.473316041025,1158.4763853750192,1160.1236475830083,mostlygreen,FinalRedContrast,FinalGreenContrast,1160.1268840000266,1161.7237335829996,2,042126mf,001,2026-04-21_10h21.54.799,priming,,2026.1.3,59.990401651211016,2026-04-21 10h21.55.130806 -0700,
GR_Incongruent_RedCue_GreenProbe_Bottom,GreenGaborBoth.png,RedGaborBoth.png,GreenGaborDisappearBottom.png,RedGaborBoth.png,Red.mp3,red,bottom,59,59,0,,,,0,59,59,29,1161.7393825410109,,,,,,,,,,,,,,,,bottom,,,,,,,,1161.7255097910238,1165.306563500024,1165.3067298330134,1170.5561670410098,1170.5638347500062,1171.806323708006,1171.8099692500255,1173.1905089580105,1173.1924182080256,1174.1405128750193,mostlygreen,FinalRedContrast,FinalGreenContrast,1174.1441137500224,1175.9738652910164,2,042126mf,001,2026-04-21_10h21.54.799,priming,,2026.1.3,59.990401651211016,2026-04-21 10h21.55.130806 -0700,
GR_Incongruent_GreenCue_RedProbe_Top,GreenGaborBoth.png,RedGaborBoth.png,GreenGaborBoth.png,RedGaborDisappearTop.png,Green.mp3,green,top,60,60,0,,,,0,60,60,6,1175.989546708006,,,,,,,,,,,,,,,,bottom,,,,,,,,1175.9757455830113,1177.1066234160098,1177.106789625017,1182.356346000015,1182.363800000021,1183.6063532080152,1183.6094562500075,1185.3234452080214,1185.326690750022,1188.1904967080045,allgreen,FinalRedContrast,FinalGreenContrast,1188.193856458005,1190.2571484160144,2,042126mf,001,2026-04-21_10h21.54.799,priming,,2026.1.3,59.990401651211016,2026-04-21 10h21.55.130806 -0700,
GR_Incongruent_RedCue_GreenProbe_Bottom,GreenGaborBoth.png,RedGaborBoth.png,GreenGaborDisappearBottom.png,RedGaborBoth.png,Red.mp3,red,bottom,61,61,0,,,,0,61,61,21,1190.2729336660122,,,,,,,,,,,,,,,,bottom,,,,,,,,1190.2587672080263,1190.8900180000055,1190.8901788330113,1196.1396115829994,1196.1462962500227,1197.3896203750046,1197.3925790000067,1199.7737973330077,1199.776418666006,1200.7072072080045,mostlygreen,FinalRedContrast,FinalGreenContrast,1200.7106131250039,1201.5405262080021,2,042126mf,001,2026-04-21_10h21.54.799,priming,,2026.1.3,59.990401651211016,2026-04-21 10h21.55.130806 -0700,
GR_Congruent_RedCue_RedProbe_Top,GreenGaborBoth.png,RedGaborBoth.png,GreenGaborBoth.png,RedGaborDisappearTop.png,Red.mp3,red,top,62,62,0,,,,0,62,62,24,1201.5562174580118,,,,,,,,,,,,,,,,top,,,,,,,,1201.540627875016,1205.5400118330144,1205.5401815000223,1210.7898204580124,1210.796412791009,1212.039775208017,1212.043128625024,1215.3235807500023,1215.3269834580133,1218.9571611249994,mostlygreen,FinalRedContrast,FinalGreenContrast,1218.9615335000271,1220.2572582499997,2,042126mf,001,2026-04-21_10h21.54.799,priming,,2026.1.3,59.990401651211016,2026-04-21 10h21.55.130806 -0700,
GR_Congruent_RedCue_RedProbe_Top,GreenGaborBoth.png,RedGaborBoth.png,GreenGaborBoth.png,RedGaborDisappearTop.png,Red.mp3,red,top,63,63,0,,,,0,63,63,8,1220.272980416019,,,,,,,,,,,,,,,,top,,,,,,,,1220.2573567080253,1221.1401417910238,1221.140305125009,1226.3897926660138,1226.3963219580182,1227.6398197910166,1227.6419268750178,1228.6402590830112,1228.6431325000012,1230.623934666015,mostlygreen,FinalRedContrast,FinalGreenContrast,1230.6272342910233,1232.7239754580078,2,042126mf,001,2026-04-21_10h21.54.799,priming,,2026.1.3,59.990401651211016,2026-04-21 10h21.55.130806 -0700,
GR_Incongruent_GreenCue_RedProbe_Bottom,GreenGaborBoth.png,RedGaborBoth.png,GreenGaborBoth.png,RedGaborDisappearBottom.png,Green.mp3,green,bottom,64,64,0,,,,0,64,64,39,1232.7396395410178,,,,,,,,,,,,,,,,bottom,,,,,,,,1232.7259749160148,1233.9068619160098,1233.9070251250232,1239.1564462910173,1239.1629490000196,1240.4065732500167,1240.4086267080274,1241.5403395830072,1241.542397250014,1242.2074245000258,allgreen,FinalRedContrast,FinalGreenContrast,1242.2102527080278,1243.3074272080266,2,042126mf,001,2026-04-21_10h21.54.799,priming,,2026.1.3,59.990401651211016,2026-04-21 10h21.55.130806 -0700,
GR_Incongruent_RedCue_GreenProbe_Top,GreenGaborBoth.png,RedGaborBoth.png,GreenGaborDisappearTop.png,RedGaborBoth.png,Red.mp3,red,top,65,65,0,,,,0,65,65,60,1243.3232607080135,,,,,,,,,,,,,,,,top,,,,,,,,1243.3090365829994,1245.6402144160238,1245.6403802910063,1250.889942666021,1250.8965127910196,1252.139898916008,1252.142045790999,1253.2403736660199,1253.2434735830175,1254.8073778750258,allgreen,FinalRedContrast,FinalGreenContrast,1254.8099252080137,1256.1574190829997,2,042126mf,001,2026-04-21_10h21.54.799,priming,,2026.1.3,59.990401651211016,2026-04-21 10h21.55.130806 -0700,
GR_Congruent_RedCue_RedProbe_Bottom,GreenGaborBoth.png,RedGaborBoth.png,GreenGaborBoth.png,RedGaborDisappearBottom.png,Red.mp3,red,bottom,66,66,0,,,,0,66,66,9,1256.1732343330223,,,,,,,,,,,,,,,,bottom,,,,,,,,1256.157520416018,1257.1736964580195,1257.1738621660043,1262.4232842910278,1262.4298290830047,1263.6732075410255,1263.6768079580215,1265.0903999160219,1265.0925097500149,1266.9740804580215,mostlygreen,FinalRedContrast,FinalGreenContrast,1266.976814500027,1268.257420583017,2,042126mf,001,2026-04-21_10h21.54.799,priming,,2026.1.3,59.990401651211016,2026-04-21 10h21.55.130806 -0700,
GR_Congruent_RedCue_RedProbe_Bottom,GreenGaborBoth.png,RedGaborBoth.png,GreenGaborBoth.png,RedGaborDisappearBottom.png,Red.mp3,red,bottom,67,67,0,,,,0,67,67,1,1268.2731270830263,,,,,,,,,,,,,,,,bottom,,,,,,,,1268.2575200830179,1269.090398958011,1269.0905621250276,1274.340093958017,1274.346716,1275.590052500018,1275.5924504160066,1276.5238277910103,1276.526382458018,1278.5578973750235,mostlygreen,FinalRedContrast,FinalGreenContrast,1278.5603857910028,1279.5075545410218,2,042126mf,001,2026-04-21_10h21.54.799,priming,,2026.1.3,59.990401651211016,2026-04-21 10h21.55.130806 -0700,
GR_Incongruent_GreenCue_RedProbe_Bottom,GreenGaborBoth.png,RedGaborBoth.png,GreenGaborBoth.png,RedGaborDisappearBottom.png,Green.mp3,green,bottom,68,68,0,,,,0,68,68,47,1279.523336541024,,,,,,,,,,,,,,,,bottom,,,,,,,,1279.509450500016,1282.6570605410088,1282.6572263750131,1287.9068746250123,1287.9135115829995,1289.1568422080018,1289.1607100410038,1289.8240003750252,1289.8270779160084,1290.5075855000177,allgreen,FinalRedContrast,FinalGreenContrast,1290.5111065000237,1291.4575581250247,2,042126mf,001,2026-04-21_10h21.54.799,priming,,2026.1.3,59.990401651211016,2026-04-21 10h21.55.130806 -0700,
GR_Congruent_RedCue_RedProbe_Bottom,GreenGaborBoth.png,RedGaborBoth.png,GreenGaborBoth.png,RedGaborDisappearBottom.png,Red.mp3,red,bottom,69,69,0,,,,0,69,69,65,1291.473199250002,,,,,,,,,,,,,,,,bottom,,,,,,,,1291.4593342500157,1295.140336958022,1295.1405010830204,1300.3900298330118,1300.3966469580191,1301.6400758330128,1301.6438293330139,1302.7741584160249,1302.7753641660092,1304.8243911660102,allgreen,FinalRedContrast,FinalGreenContrast,1304.828193791007,1306.0576960830076,2,042126mf,001,2026-04-21_10h21.54.799,priming,,2026.1.3,59.990401651211016,2026-04-21 10h21.55.130806 -0700,
GR_Congruent_RedCue_RedProbe_Top,GreenGaborBoth.png,RedGaborBoth.png,GreenGaborBoth.png,RedGaborDisappearTop.png,Red.mp3,red,top,70,70,0,,,,0,70,70,48,1306.0734393330058,,,,,,,,,,,,,,,,top,,,,,,,,1306.0577980830276,1307.0571196250094,1307.0572797910136,1312.3067976660095,1312.314434,1313.5568623750005,1313.5597439160047,1314.8239270410268,1314.8271056250087,1315.9747465830005,allgreen,FinalRedContrast,FinalGreenContrast,1315.9779062910238,1318.7243388330098,2,042126mf,001,2026-04-21_10h21.54.799,priming,,2026.1.3,59.990401651211016,2026-04-21 10h21.55.130806 -0700,
GR_Congruent_GreenCue_GreenProbe_Bottom,GreenGaborBoth.png,RedGaborBoth.png,GreenGaborDisappearBottom.png,RedGaborBoth.png,Green.mp3,green,bottom,71,71,0,,,,0,71,71,27,1318.7400692910014,,,,,,,,,,,,,,,,bottom,,,,,,,,1318.7263394580223,1319.8072017080267,1319.807363333006,1325.0568079580262,1325.0644863330235,1326.306807875022,1326.3092128749995,1327.6240815830242,1327.6275629580196,1328.4243888330238,allgreen,FinalRedContrast,FinalGreenContrast,1328.4275541250245,1329.657682250021,2,042126mf,001,2026-04-21_10h21.54.799,priming,,2026.1.3,59.990401651211016,2026-04-21 10h21.55.130806 -0700,
GG_non_riv_catch_GreenCue_GreenProbe_Bottom,GreenGaborBoth.png,Blank.png,GreenGaborDisappearBottom.png,Blank.png,Green.mp3,green,bottom,72,72,0,,,,0,72,72,79,1329.6734754580248,,,,,,,,,,,,,,,,bottom,,,,,,,,1329.6577830000024,1336.9405619580066,1336.940723000007,1342.1903153330204,1342.1967557080206,1343.4403616250202,1343.4428308330243,1344.2073752080032,1344.2107654160063,1345.8744957910094,allgreen,FinalRedContrast,FinalGreenContrast,1345.8779787500098,1347.7911441660253,2,042126mf,001,2026-04-21_10h21.54.799,priming,,2026.1.3,59.990401651211016,2026-04-21 10h21.55.130806 -0700,
GR_Congruent_RedCue_RedProbe_Top,GreenGaborBoth.png,RedGaborBoth.png,GreenGaborBoth.png,RedGaborDisappearTop.png,Red.mp3,red,top,73,73,0,,,,0,73,73,32,1347.8069058750116,,,,,,,,,,,,,,,,top,,,,,,,,1347.7927943330142,1348.6905988330254,1348.6907604580047,1353.940352000005,1353.947076958022,1355.1903152910236,1355.1928497080225,1356.4740667910082,1356.4768352910178,1357.3077802500047,allgreen,FinalRedContrast,FinalGreenContrast,1357.311204083002,1358.3911451660097,2,042126mf,001,2026-04-21_10h21.54.799,priming,,2026.1.3,59.990401651211016,2026-04-21 10h21.55.130806 -0700,
GR_Incongruent_RedCue_GreenProbe_Top,GreenGaborBoth.png,RedGaborBoth.png,GreenGaborDisappearTop.png,RedGaborBoth.png,Red.mp3,red,top,74,74,0,,,,0,74,74,52,1358.406928750017,,,,,,,,,,,,,,,,top,,,,,,,,1358.3912448330084,1359.5075058330258,1359.507681957999,1364.7569227910135,1364.7635051660181,1366.0069047500147,1366.0093927910202,1366.7406361250032,1366.7436389580253,1368.074602291017,mostlygreen,FinalRedContrast,FinalGreenContrast,1368.0778997910093,1368.807883875008,2,042126mf,001,2026-04-21_10h21.54.799,priming,,2026.1.3,59.990401651211016,2026-04-21 10h21.55.130806 -0700,
GR_Incongruent_GreenCue_RedProbe_Top,GreenGaborBoth.png,RedGaborBoth.png,GreenGaborBoth.png,RedGaborDisappearTop.png,Green.mp3,green,top,75,75,0,,,,0,75,75,38,1368.8237189160136,,,,,,,,,,,,,,,,top,,,,,,,,1368.8097489160136,1370.1574148750224,1370.1575772910146,1375.4071365000273,1375.413651083014,1376.657127500017,1376.6596314580238,1377.3409133750247,1377.3440055410028,1380.7411938330042,mostlygreen,FinalRedContrast,FinalGreenContrast,1380.7447192910186,1381.9578984160034,2,042126mf,001,2026-04-21_10h21.54.799,priming,,2026.1.3,59.990401651211016,2026-04-21 10h21.55.130806 -0700,
GR_Congruent_RedCue_RedProbe_Bottom,GreenGaborBoth.png,RedGaborBoth.png,GreenGaborBoth.png,RedGaborDisappearBottom.png,Red.mp3,red,bottom,76,76,0,,,,0,76,76,41,1381.9736455000238,,,,,,,,,,,,,,,,bottom,,,,,,,,1381.9596411660023,1383.990733750019,1383.9909030830022,1389.240445791016,1389.2470244580181,1390.490511083015,1390.492949416017,1391.340837374999,1391.3431919160066,1392.3412610830273,mostlygreen,FinalRedContrast,FinalGreenContrast,1392.344421250018,1393.8079601660138,2,042126mf,001,2026-04-21_10h21.54.799,priming,,2026.1.3,59.990401651211016,2026-04-21 10h21.55.130806 -0700,
GR_Congruent_GreenCue_GreenProbe_Bottom,GreenGaborBoth.png,RedGaborBoth.png,GreenGaborDisappearBottom.png,RedGaborBoth.png,Green.mp3,green,bottom,77,77,0,,,,0,77,77,19,1393.8238507909991,,,,,,,,,,,,,,,,bottom,,,,,,,,1393.809965750028,1394.7574477080198,1394.757609375025,1400.0072370410198,1400.0137694160221,1401.2572088330053,1401.2596243330045,1402.5909848750161,1402.59343025001,1404.1080728330126,allgreen,FinalRedContrast,FinalGreenContrast,1404.1112103330088,1406.4080637910229,2,042126mf,001,2026-04-21_10h21.54.799,priming,,2026.1.3,59.990401651211016,2026-04-21 10h21.55.130806 -0700,
GR_Incongruent_GreenCue_RedProbe_Top,GreenGaborBoth.png,RedGaborBoth.png,GreenGaborBoth.png,RedGaborDisappearTop.png,Green.mp3,green,top,78,78,0,,,,0,78,78,14,1406.4238574160263,,,,,,,,,,,,,,,,top,,,,,,,,1406.408164916007,1407.7075446660165,1407.7077053750108,1412.9571445000183,1412.9637067080184,1414.2074607500108,1414.2101727910049,1415.9078752500063,1415.911043791013,1419.008140416001,allgreen,FinalRedContrast,FinalGreenContrast,1419.0109736660088,1420.1247053330007,2,042126mf,001,2026-04-21_10h21.54.799,priming,,2026.1.3,59.990401651211016,2026-04-21 10h21.55.130806 -0700,
GR_Incongruent_GreenCue_RedProbe_Top,GreenGaborBoth.png,RedGaborBoth.png,GreenGaborBoth.png,RedGaborDisappearTop.png,Green.mp3,green,top,79,79,0,,,,0,79,79,22,1420.1405095830269,,,,,,,,,,,,,,,,top,,,,,,,,1420.1248053750023,1423.1908634160063,1423.1910242080048,1428.4406437500147,1428.4471778330044,1429.690425583016,1429.692363375012,1432.9079388750251,1432.91073891602,1435.224869208003,allgreen,FinalRedContrast,FinalGreenContrast,1435.2280519580236,1436.3581958750146,2,042126mf,001,2026-04-21_10h21.54.799,priming,,2026.1.3,59.990401651211016,2026-04-21 10h21.55.130806 -0700,
GR_Congruent_GreenCue_GreenProbe_Top,GreenGaborBoth.png,RedGaborBoth.png,GreenGaborDisappearTop.png,RedGaborBoth.png,Green.mp3,green,top,80,0,1,,,,1,0,80,2,1436.3738793750235,,,,,,,,,,,,,,,,top,,,,,,,,1436.358292583027,1438.1410242080165,1438.1411852500169,1443.3906692500168,1443.398205125006,1444.640695833019,1444.644320500025,1445.957879624999,1445.9611523330095,1446.741494875023,allgreen,FinalRedContrast,FinalGreenContrast,1446.7461998330255,1448.0415410830174,2,042126mf,001,2026-04-21_10h21.54.799,priming,,2026.1.3,59.990401651211016,2026-04-21 10h21.55.130806 -0700,
GG_non_riv_catch_RedCue_GreenProbe_Top,GreenGaborBoth.png,Blank.png,GreenGaborDisappearTop.png,Blank.png,Red.mp3,red,top,81,1,1,,,,1,1,81,76,1448.0572313330194,,,,,,,,,,,,,,,,top,,,,,,,,1448.0431801250088,1448.9742040000274,1448.9743665000133,1454.2240603330138,1454.23031420802,1455.47411512502,1455.477810625016,1456.1577151250094,1456.1608575000137,1457.4081393750093,allgreen,FinalRedContrast,FinalGreenContrast,1457.4112323330191,1458.541869291017,2,042126mf,001,2026-04-21_10h21.54.799,priming,,2026.1.3,59.990401651211016,2026-04-21 10h21.55.130806 -0700,
GR_Incongruent_RedCue_GreenProbe_Top,GreenGaborBoth.png,RedGaborBoth.png,GreenGaborDisappearTop.png,RedGaborBoth.png,Red.mp3,red,top,82,2,1,,,,1,2,82,12,1458.5572362080275,,,,,,,,,,,,,,,,top,,,,,,,,1458.5419695830205,1459.4077682080097,1459.4079312079994,1464.6574784160184,1464.6639485410124,1465.9077060000272,1465.9108937080018,1467.1579788330127,1467.160883916018,1467.775017708016,allgreen,FinalRedContrast,FinalGreenContrast,1467.7780865830136,1468.5917477500043,2,042126mf,001,2026-04-21_10h21.54.799,priming,,2026.1.3,59.990401651211016,2026-04-21 10h21.55.130806 -0700,
GG_non_riv_catch_GreenCue_GreenProbe_Bottom,GreenGaborBoth.png,Blank.png,GreenGaborDisappearBottom.png,Blank.png,Green.mp3,green,bottom,83,3,1,,,,1,3,83,79,1468.6073994160106,,,,,,,,,,,,,,,,bottom,,,,,,,,1468.5936459160002,1469.7411765000143,1469.7413383750245,1474.9908034160035,1474.9963692910096,1476.2409022500215,1476.244511708006,1477.2746098330244,1477.2776749580225,1478.225005416025,allgreen,FinalRedContrast,FinalGreenContrast,1478.2281894580228,1480.6083002080268,2,042126mf,001,2026-04-21_10h21.54.799,priming,,2026.1.3,59.990401651211016,2026-04-21 10h21.55.130806 -0700,
GR_Congruent_RedCue_RedProbe_Bottom,GreenGaborBoth.png,RedGaborBoth.png,GreenGaborBoth.png,RedGaborDisappearBottom.png,Red.mp3,red,bottom,84,4,1,,,,1,4,84,25,1480.6240497080144,,,,,,,,,,,,,,,,bottom,,,,,,,,1480.610073208023,1484.341855125007,1484.3420777910214,1489.5907934160205,1489.5991974580102,1490.8408503330138,1490.8439619580167,1493.0246289160277,1493.027843000018,1493.9083018330275,evensplit,FinalRedContrast,FinalGreenContrast,1493.9118372500234,1495.1582469160203,2,042126mf,001,2026-04-21_10h21.54.799,priming,,2026.1.3,59.990401651211016,2026-04-21 10h21.55.130806 -0700,
GR_Incongruent_GreenCue_RedProbe_Bottom,GreenGaborBoth.png,RedGaborBoth.png,GreenGaborBoth.png,RedGaborDisappearBottom.png,Green.mp3,green,bottom,85,5,1,,,,1,5,85,15,1495.1740012910159,,,,,,,,,,,,,,,,bottom,,,,,,,,1495.1601330410049,1496.9415984580119,1496.9417716660246,1502.1908966660267,1502.1975591660012,1503.440992125019,1503.4441828330164,1504.4580815410009,1504.4606552080077,1505.6916982500115,mostlygreen,FinalRedContrast,FinalGreenContrast,1505.6947950830217,1508.72542612502,2,042126mf,001,2026-04-21_10h21.54.799,priming,,2026.1.3,59.990401651211016,2026-04-21 10h21.55.130806 -0700,
GR_Congruent_GreenCue_GreenProbe_Bottom,GreenGaborBoth.png,RedGaborBoth.png,GreenGaborDisappearBottom.png,RedGaborBoth.png,Green.mp3,green,bottom,86,6,1,,,,1,6,86,67,1508.7409580830135,,,,,,,,,,,,,,,,bottom,,,,,,,,1508.7255271250033,1513.3412910000188,1513.341458541021,1518.5909119580174,1518.5986645830271,1519.8410297080118,1519.8429306660255,1520.6413891250268,1520.6432873750164,1522.19169937502,mostlygreen,FinalRedContrast,FinalGreenContrast,1522.1953066250135,1523.6917848750018,2,042126mf,001,2026-04-21_10h21.54.799,priming,,2026.1.3,59.990401651211016,2026-04-21 10h21.55.130806 -0700,
GR_Incongruent_RedCue_GreenProbe_Top,GreenGaborBoth.png,RedGaborBoth.png,GreenGaborDisappearTop.png,RedGaborBoth.png,Red.mp3,red,top,87,7,1,,,,1,7,87,52,1523.7075273330265,,,,,,,,,,,,,,,,top,,,,,,,,1523.6935841250233,1525.0580251250067,1525.0581876659999,1530.3077202080167,1530.3155030410271,1531.5577736250125,1531.5607694160135,1533.4583804160065,1533.4590602079988,1534.6419401250023,allgreen,FinalRedContrast,FinalGreenContrast,1534.6452697500063,1535.5251945830241,2,042126mf,001,2026-04-21_10h21.54.799,priming,,2026.1.3,59.990401651211016,2026-04-21 10h21.55.130806 -0700,
GR_Congruent_RedCue_RedProbe_Top,GreenGaborBoth.png,RedGaborBoth.png,GreenGaborBoth.png,RedGaborDisappearTop.png,Red.mp3,red,top,88,8,1,,,,1,8,88,64,1535.5408254580107,,,,,,,,,,,,,,,,top,,,,,,,,1535.5252935410244,1536.1747900000191,1536.1749517910066,1541.4243782910053,1541.4319491250208,1542.6745513330097,1542.6781164160057,1543.408177166013,1543.4113117910165,1544.7918789579999,allgreen,FinalRedContrast,FinalGreenContrast,1544.7960847910144,1546.5423397500126,2,042126mf,001,2026-04-21_10h21.54.799,priming,,2026.1.3,59.990401651211016,2026-04-21 10h21.55.130806 -0700,
GR_Congruent_GreenCue_GreenProbe_Top,GreenGaborBoth.png,RedGaborBoth.png,GreenGaborDisappearTop.png,RedGaborBoth.png,Green.mp3,green,top,89,9,1,,,,1,9,89,18,1546.557644125016,,,,,,,,,,,,,,,,top,,,,,,,,1546.5442444159999,1548.6247303330165,1548.6248934160103,1553.8744518750173,1553.8810876250209,1555.1243567910278,1555.127813833009,1555.808237707999,1555.8116803750163,1557.5918637500145,allgreen,FinalRedContrast,FinalGreenContrast,1557.5956191250007,1558.9919165000028,2,042126mf,001,2026-04-21_10h21.54.799,priming,,2026.1.3,59.990401651211016,2026-04-21 10h21.55.130806 -0700,
GR_Incongruent_GreenCue_RedProbe_Bottom,GreenGaborBoth.png,RedGaborBoth.png,GreenGaborBoth.png,RedGaborDisappearBottom.png,Green.mp3,green,bottom,90,10,1,,,,1,10,90,55,1559.0076657080208,,,,,,,,,,,,,,,,bottom,,,,,,,,1558.9920175410225,1559.6582415830053,1559.6584061250032,1564.9079267500201,1564.9144989160122,1566.1578607500123,1566.1613724580093,1566.8583758750174,1566.860977208009,1567.9419850410195,allgreen,FinalRedContrast,FinalGreenContrast,1567.9447406660183,1569.5257556250144,2,042126mf,001,2026-04-21_10h21.54.799,priming,,2026.1.3,59.990401651211016,2026-04-21 10h21.55.130806 -0700,
GR_Congruent_RedCue_RedProbe_Top,GreenGaborBoth.png,RedGaborBoth.png,GreenGaborBoth.png,RedGaborDisappearTop.png,Red.mp3,red,top,91,11,1,,,,1,11,91,16,1569.5411516660242,,,,,,,,,,,,,,,,top,,,,,,,,1569.527378166007,1571.491555583023,1571.4917207079998,1576.7411852080259,1576.7477967910236,1577.99122133301,1577.9940773750131,1579.2750317080063,1579.278345000028,1579.9087162500073,allgreen,FinalRedContrast,FinalGreenContrast,1579.9127451250097,1581.2253979580128,2,042126mf,001,2026-04-21_10h21.54.799,priming,,2026.1.3,59.990401651211016,2026-04-21 10h21.55.130806 -0700,
GR_Incongruent_RedCue_GreenProbe_Bottom,GreenGaborBoth.png,RedGaborBoth.png,GreenGaborDisappearBottom.png,RedGaborBoth.png,Red.mp3,red,bottom,92,12,1,,,,1,12,92,69,1581.2409953330061,,,,,,,,,,,,,,,,bottom,,,,,,,,1581.2254995000258,1583.9081732910126,1583.9083336660115,1589.1578518330061,1589.1665964999993,1590.407840083004,1590.4102807500167,1591.2917519580224,1591.2940301660274,1593.1425755410164,allgreen,FinalRedContrast,FinalGreenContrast,1593.1446380410052,1594.1755141250032,2,042126mf,001,2026-04-21_10h21.54.799,priming,,2026.1.3,59.990401651211016,2026-04-21 10h21.55.130806 -0700,
GR_Incongruent_RedCue_GreenProbe_Bottom,GreenGaborBoth.png,RedGaborBoth.png,GreenGaborDisappearBottom.png,RedGaborBoth.png,Red.mp3,red,bottom,93,13,1,,,,1,13,93,21,1594.1912937910238,,,,,,,,,,,,,,,,bottom,,,,,,,,1594.17561437501,2034.8268260410114,2034.8269900410087,2040.076465125021,2040.0854908330075,2041.3265268750256,2041.3303499160102,2042.0772901660239,2042.0799440410046,2043.2273636250175,evensplit,FinalRedContrast,FinalGreenContrast,2043.2312215410057,2046.5439307080233,2,042126mf,001,2026-04-21_10h21.54.799,priming,,2026.1.3,59.990401651211016,2026-04-21 10h21.55.130806 -0700,
GR_Incongruent_RedCue_GreenProbe_Top,GreenGaborBoth.png,RedGaborBoth.png,GreenGaborDisappearTop.png,RedGaborBoth.png,Red.mp3,red,top,94,14,1,,,,1,14,94,60,2046.5597525410121,,,,,,,,,,,,,,,,top,,,,,,,,2046.5440372910234,2052.6268260000215,2052.626992416015,2057.876447041024,2057.8840866250102,2059.1265287080023,2059.129331291013,2060.2606520410045,2060.2626174580073,2062.9772649580264,mostlygreen,FinalRedContrast,FinalGreenContrast,2062.981453583023,2064.6607032910106,2,042126mf,001,2026-04-21_10h21.54.799,priming,,2026.1.3,59.990401651211016,2026-04-21 10h21.55.130806 -0700,
RR_non_riv_catch_GreenCue_RedProbe_Top,Blank.png,RedGaborBoth.png,Blank.png,RedGaborDisappearTop.png,Green.mp3,green,top,95,15,1,,,,1,15,95,74,2064.676380333025,,,,,,,,,,,,,,,,top,,,,,,,,2064.6626365830016,2066.2602178330126,2066.2603873330227,2071.509940708027,2071.516766875022,2072.759938666015,2072.762666750001,2073.677053833002,2073.680397750024,2075.0108015000005,allred,FinalRedContrast,FinalGreenContrast,2075.0143516250246,2076.5440126660105,2,042126mf,001,2026-04-21_10h21.54.799,priming,,2026.1.3,59.990401651211016,2026-04-21 10h21.55.130806 -0700,
GR_Congruent_GreenCue_GreenProbe_Top,GreenGaborBoth.png,RedGaborBoth.png,GreenGaborDisappearTop.png,RedGaborBoth.png,Green.mp3,green,top,96,16,1,,,,1,16,96,42,2076.5598510830023,,,,,,,,,,,,,,,,top,,,,,,,,2076.5441124160134,2085.4936043750204,2085.4937662500015,2090.743234833004,2090.7516592910106,2091.993304625008,2091.995714208024,2092.9104286250076,2092.9137496660114,2093.894122041005,evensplit,FinalRedContrast,FinalGreenContrast,2093.8976682909997,2094.660756875004,2,042126mf,001,2026-04-21_10h21.54.799,priming,,2026.1.3,59.990401651211016,2026-04-21 10h21.55.130806 -0700,
GR_Congruent_RedCue_RedProbe_Top,GreenGaborBoth.png,RedGaborBoth.png,GreenGaborBoth.png,RedGaborDisappearTop.png,Red.mp3,red,top,97,17,1,,,,1,17,97,24,2094.6764633330167,,,,,,,,,,,,,,,,top,,,,,,,,2094.6625095410272,2095.4269703750033,2095.427136666025,2100.6766870830033,2100.6842927079997,2101.9267858750245,2101.9308409580262,2102.8438462080085,2102.8464024999994,2104.660871583008,allgreen,FinalRedContrast,FinalGreenContrast,2104.6635236660077,2105.7108981250203,2,042126mf,001,2026-04-21_10h21.54.799,priming,,2026.1.3,59.990401651211016,2026-04-21 10h21.55.130806 -0700,
GR_Congruent_GreenCue_GreenProbe_Bottom,GreenGaborBoth.png,RedGaborBoth.png,GreenGaborDisappearBottom.png,RedGaborBoth.png,Green.mp3,green,bottom,98,18,1,,,,1,18,98,11,2105.7266050830076,,,,,,,,,,,,,,,,bottom,,,,,,,,2105.712789000012,2106.54376637502,2106.543933875015,2111.7934372500167,2111.8009472080157,2113.043376833026,2113.046810791013,2114.1938086250157,2114.1971547499998,2116.4275905410177,mostlygreen,FinalRedContrast,FinalGreenContrast,2116.4310881660203,2124.1608604580106,2,042126mf,001,2026-04-21_10h21.54.799,priming,,2026.1.3,59.990401651211016,2026-04-21 10h21.55.130806 -0700,
GR_Congruent_GreenCue_GreenProbe_Bottom,GreenGaborBoth.png,RedGaborBoth.png,GreenGaborDisappearBottom.png,RedGaborBoth.png,Green.mp3,green,bottom,99,19,1,,,,1,19,99,3,2124.1767519999994,,,,,,,,,,,,,,,,bottom,,,,,,,,2124.1609610410233,2125.1772590410255,2125.1774228330178,2130.4268827910128,2130.4333653330104,2131.6768640410155,2131.678617333004,2132.3941203750146,2132.3962527500116,2134.2110451250046,mostlygreen,FinalRedContrast,FinalGreenContrast,2134.2148744160077,2134.844729375007,2,042126mf,001,2026-04-21_10h21.54.799,priming,,2026.1.3,59.990401651211016,2026-04-21 10h21.55.130806 -0700,
GG_non_riv_catch_GreenCue_GreenProbe_Top,GreenGaborBoth.png,Blank.png,GreenGaborDisappearTop.png,Blank.png,Green.mp3,green,top,100,20,1,,,,1,20,100,78,2134.860115041025,,,,,,,,,,,,,,,,top,,,,,,,,2134.844829291018,2136.410542333004,2136.4107077080116,2141.6601781659992,2141.666929750005,2142.910141500004,2142.9127441660094,2143.9606800410256,2143.9639206660213,2145.5110147500236,allgreen,FinalRedContrast,FinalGreenContrast,2145.514316708024,2146.377672750008,2,042126mf,001,2026-04-21_10h21.54.799,priming,,2026.1.3,59.990401651211016,2026-04-21 10h21.55.130806 -0700,
GR_Incongruent_GreenCue_RedProbe_Bottom,GreenGaborBoth.png,RedGaborBoth.png,GreenGaborBoth.png,RedGaborDisappearBottom.png,Green.mp3,green,bottom,101,21,1,,,,1,21,101,31,2146.393475666002,,,,,,,,,,,,,,,,bottom,,,,,,,,2146.377772208012,2148.410493000003,2148.4106555410253,2153.6602349580207,2153.6677567500155,2154.91023483302,2154.9122000000207,2156.277307833021,2156.2803936250275,2157.1609965000243,allgreen,FinalRedContrast,FinalGreenContrast,2157.164360791008,2158.0443740830233,2,042126mf,001,2026-04-21_10h21.54.799,priming,,2026.1.3,59.990401651211016,2026-04-21 10h21.55.130806 -0700,
GR_Congruent_GreenCue_GreenProbe_Top,GreenGaborBoth.png,RedGaborBoth.png,GreenGaborDisappearTop.png,RedGaborBoth.png,Green.mp3,green,top,102,22,1,,,,1,22,102,34,2158.0602045000123,,,,,,,,,,,,,,,,top,,,,,,,,2158.0444748750015,2158.9272779580206,2158.9274402500014,2164.1770214160206,2164.18368633301,2165.427031708008,2165.429324833007,2166.1107171660115,2166.1140882910113,2167.9611420000147,allgreen,FinalRedContrast,FinalGreenContrast,2167.9642080000194,2169.7944202910003,2,042126mf,001,2026-04-21_10h21.54.799,priming,,2026.1.3,59.990401651211016,2026-04-21 10h21.55.130806 -0700,
GR_Congruent_RedCue_RedProbe_Top,GreenGaborBoth.png,RedGaborBoth.png,GreenGaborBoth.png,RedGaborDisappearTop.png,Red.mp3,red,top,103,23,1,,,,1,23,103,0,2169.8102135000227,,,,,,,,,,,,,,,,top,,,,,,,,2169.79603454101,2170.661244250019,2170.661440458003,2175.9105627080135,2175.9183939580107,2177.160377083026,2177.1623903330183,2178.461139916006,2178.4628877080104,2179.69456891602,mostlygreen,FinalRedContrast,FinalGreenContrast,2179.697301958018,2181.0445086250256,2,042126mf,001,2026-04-21_10h21.54.799,priming,,2026.1.3,59.990401651211016,2026-04-21 10h21.55.130806 -0700,
GR_Congruent_RedCue_RedProbe_Bottom,GreenGaborBoth.png,RedGaborBoth.png,GreenGaborBoth.png,RedGaborDisappearBottom.png,Red.mp3,red,bottom,104,24,1,,,,1,24,104,17,2181.0602462910174,,,,,,,,,,,,,,,,bottom,,,,,,,,2181.0446084160067,2182.760725958011,2182.7608935830067,2188.0103460000246,2188.0168335000053,2189.2603909160243,2189.2642704160244,2191.8443017500103,2191.8472457500175,2192.7946089160105,allgreen,FinalRedContrast,FinalGreenContrast,2192.7972475410206,2195.2279861250136,2,042126mf,001,2026-04-21_10h21.54.799,priming,,2026.1.3,59.990401651211016,2026-04-21 10h21.55.130806 -0700,
GR_Congruent_GreenCue_GreenProbe_Bottom,GreenGaborBoth.png,RedGaborBoth.png,GreenGaborDisappearBottom.png,RedGaborBoth.png,Green.mp3,green,bottom,105,25,1,,,,1,25,105,35,2195.2436539160262,,,,,,,,,,,,,,,,bottom,,,,,,,,2195.2298921660113,2197.0941304160224,2197.094292875001,2202.343811166007,2202.350445791002,2203.5939192910155,2203.597285458003,2204.6108967910113,2204.6129172500223,2206.6615973330045,mostlygreen,FinalRedContrast,FinalGreenContrast,2206.664460250002,2208.577876166004,2,042126mf,001,2026-04-21_10h21.54.799,priming,,2026.1.3,59.990401651211016,2026-04-21 10h21.55.130806 -0700,
GR_Congruent_RedCue_RedProbe_Top,GreenGaborBoth.png,RedGaborBoth.png,GreenGaborBoth.png,RedGaborDisappearTop.png,Red.mp3,red,top,106,26,1,,,,1,26,106,48,2208.593720625009,,,,,,,,,,,,,,,,top,,,,,,,,2208.579546083027,2210.3273802910117,2210.3275424580206,2215.5771575410035,2215.5847707909998,2216.827194958023,2216.8311340410146,2217.7775503750017,2217.780542250024,2218.9112943330256,allgreen,FinalRedContrast,FinalGreenContrast,2218.914520916005,2219.56135170802,2,042126mf,001,2026-04-21_10h21.54.799,priming,,2026.1.3,59.990401651211016,2026-04-21 10h21.55.130806 -0700,
GR_Incongruent_GreenCue_RedProbe_Bottom,GreenGaborBoth.png,RedGaborBoth.png,GreenGaborBoth.png,RedGaborDisappearBottom.png,Green.mp3,green,bottom,107,27,1,,,,1,27,107,7,2219.5770897500042,,,,,,,,,,,,,,,,bottom,,,,,,,,2219.563234666013,2221.3941495000036,2221.3943148750113,2226.6438973330078,2226.6513030830247,2227.8939487080206,2227.8975757500157,2230.2451811250066,2230.245457458019,2232.2781043330033,allgreen,FinalRedContrast,FinalGreenContrast,2232.2817826660175,2234.428090625006,2,042126mf,001,2026-04-21_10h21.54.799,priming,,2026.1.3,59.990401651211016,2026-04-21 10h21.55.130806 -0700,
GR_Incongruent_GreenCue_RedProbe_Bottom,GreenGaborBoth.png,RedGaborBoth.png,GreenGaborBoth.png,RedGaborDisappearBottom.png,Green.mp3,green,bottom,108,28,1,,,,1,28,108,63,2234.4438617500127,,,,,,,,,,,,,,,,bottom,,,,,,,,2234.4281887079997,2236.3609372909996,2236.3610998330114,2241.610574750026,2241.617188166012,2242.8606342080166,2242.8638474160107,2243.8943659159995,2243.897327500017,2245.061870833015,allgreen,FinalRedContrast,FinalGreenContrast,2245.064333416027,2246.794748333021,2,042126mf,001,2026-04-21_10h21.54.799,priming,,2026.1.3,59.990401651211016,2026-04-21 10h21.55.130806 -0700,
GR_Incongruent_RedCue_GreenProbe_Bottom,GreenGaborBoth.png,RedGaborBoth.png,GreenGaborDisappearBottom.png,RedGaborBoth.png,Red.mp3,red,bottom,109,29,1,,,,1,29,109,29,2246.8104733750224,,,,,,,,,,,,,,,,bottom,,,,,,,,2246.796381208027,2248.6943555410253,2248.6945232500148,2253.9437679160037,2253.951431458001,2255.194079416018,2255.197695125011,2255.9611039580195,2255.9645030829997,2257.061504666024,allgreen,FinalRedContrast,FinalGreenContrast,2257.063903833012,2258.111550750007,2,042126mf,001,2026-04-21_10h21.54.799,priming,,2026.1.3,59.990401651211016,2026-04-21 10h21.55.130806 -0700,
GR_Congruent_RedCue_RedProbe_Bottom,GreenGaborBoth.png,RedGaborBoth.png,GreenGaborBoth.png,RedGaborDisappearBottom.png,Red.mp3,red,bottom,110,30,1,,,,1,30,110,1,2258.1272983330127,,,,,,,,,,,,,,,,bottom,,,,,,,,2258.1116520000214,2259.0943502500013,2259.0945151250053,2264.343912791024,2264.3502970410045,2265.5939609160123,2265.5965311660257,2267.461137541017,2267.463775666023,2268.494878291007,allgreen,FinalRedContrast,FinalGreenContrast,2268.4983275830164,2269.344855083007,2,042126mf,001,2026-04-21_10h21.54.799,priming,,2026.1.3,59.990401651211016,2026-04-21 10h21.55.130806 -0700,
GR_Incongruent_RedCue_GreenProbe_Bottom,GreenGaborBoth.png,RedGaborBoth.png,GreenGaborDisappearBottom.png,RedGaborBoth.png,Red.mp3,red,bottom,111,31,1,,,,1,31,111,5,2269.3607404580107,,,,,,,,,,,,,,,,bottom,,,,,,,,2269.3449577080028,2269.9944013750064,2269.994565541012,2275.2440720410086,2275.2507118750073,2276.494021750026,2276.4968497080263,2277.5279655000195,2277.53133245802,2279.1115326250147,allgreen,FinalRedContrast,FinalGreenContrast,2279.1147730410157,2281.5115165000025,2,042126mf,001,2026-04-21_10h21.54.799,priming,,2026.1.3,59.990401651211016,2026-04-21 10h21.55.130806 -0700,
GR_Incongruent_GreenCue_RedProbe_Top,GreenGaborBoth.png,RedGaborBoth.png,GreenGaborBoth.png,RedGaborDisappearTop.png,Green.mp3,green,top,112,32,1,,,,1,32,112,46,2281.527297958004,,,,,,,,,,,,,,,,top,,,,,,,,2281.513398375013,2283.711035291024,2283.711199250014,2288.960792541009,2288.967322625016,2290.210888625006,2290.213283625024,2291.9946034160093,2291.996833541023,2293.478404458001,mostlygreen,FinalRedContrast,FinalGreenContrast,2293.4820503750234,2295.061813166016,2,042126mf,001,2026-04-21_10h21.54.799,priming,,2026.1.3,59.990401651211016,2026-04-21 10h21.55.130806 -0700,
GR_Incongruent_GreenCue_RedProbe_Bottom,GreenGaborBoth.png,RedGaborBoth.png,GreenGaborBoth.png,RedGaborDisappearBottom.png,Green.mp3,green,bottom,113,33,1,,,,1,33,113,39,2295.077429708006,,,,,,,,,,,,,,,,top,,,,,,,,2295.0619156660105,2296.011162041017,2296.011326125008,2301.260899375018,2301.267535666004,2302.5108780410083,2302.5144595410093,2306.644609708019,2306.6481121660036,2307.8617584580206,allgreen,FinalRedContrast,FinalGreenContrast,2307.8649918330193,2309.3949843330192,2,042126mf,001,2026-04-21_10h21.54.799,priming,,2026.1.3,59.990401651211016,2026-04-21 10h21.55.130806 -0700,
GR_Incongruent_RedCue_GreenProbe_Top,GreenGaborBoth.png,RedGaborBoth.png,GreenGaborDisappearTop.png,RedGaborBoth.png,Red.mp3,red,top,114,34,1,,,,1,34,114,44,2309.410792166018,,,,,,,,,,,,,,,,top,,,,,,,,2309.3966310830147,2311.3112022500136,2311.3113684160053,2316.5608975409996,2316.568465041026,2317.810867332999,2317.8132715000247,2318.811286083015,2318.8142047500005,2319.5952228330134,evensplit,FinalRedContrast,FinalGreenContrast,2319.5984813750256,2320.5617997910012,2,042126mf,001,2026-04-21_10h21.54.799,priming,,2026.1.3,59.990401651211016,2026-04-21 10h21.55.130806 -0700,
GR_Congruent_GreenCue_GreenProbe_Bottom,GreenGaborBoth.png,RedGaborBoth.png,GreenGaborDisappearBottom.png,RedGaborBoth.png,Green.mp3,green,bottom,115,35,1,,,,1,35,115,43,2320.57758695801,,,,,,,,,,,,,,,,bottom,,,,,,,,2320.5636989580235,2321.544615999999,2321.544779125019,2326.7944077910215,2326.801030500006,2328.044330583012,2328.0478220000223,2328.7114810000057,2328.714415666007,2329.428498000023,allgreen,FinalRedContrast,FinalGreenContrast,2329.432743125013,2330.495105750015,2,042126mf,001,2026-04-21_10h21.54.799,priming,,2026.1.3,59.990401651211016,2026-04-21 10h21.55.130806 -0700,
GR_Incongruent_GreenCue_RedProbe_Top,GreenGaborBoth.png,RedGaborBoth.png,GreenGaborBoth.png,RedGaborDisappearTop.png,Green.mp3,green,top,116,36,1,,,,1,36,116,22,2330.5109335410234,,,,,,,,,,,,,,,,top,,,,,,,,2330.4952065410034,2331.2946384160023,2331.294798125018,2336.544387416012,2336.5515163750097,2337.794374707999,2337.797115583002,2338.811376083002,2338.814441000024,2339.5284720830095,allgreen,FinalRedContrast,FinalGreenContrast,2339.5317667500058,2340.295128916012,2,042126mf,001,2026-04-21_10h21.54.799,priming,,2026.1.3,59.990401651211016,2026-04-21 10h21.55.130806 -0700,
GR_Congruent_GreenCue_GreenProbe_Bottom,GreenGaborBoth.png,RedGaborBoth.png,GreenGaborDisappearBottom.png,RedGaborBoth.png,Green.mp3,green,bottom,117,37,1,,,,1,37,117,59,2340.3107917910093,,,,,,,,,,,,,,,,bottom,,,,,,,,2340.2952297910233,2342.111243250023,2342.111406416021,2347.3609881250013,2347.3676764580014,2348.611040125019,2348.6140990830027,2349.278049666027,2349.2809174580034,2351.311970333016,mostlygreen,FinalRedContrast,FinalGreenContrast,2351.314666916005,2352.2119347500266,2,042126mf,001,2026-04-21_10h21.54.799,priming,,2026.1.3,59.990401651211016,2026-04-21 10h21.55.130806 -0700,
GR_Incongruent_RedCue_GreenProbe_Top,GreenGaborBoth.png,RedGaborBoth.png,GreenGaborDisappearTop.png,RedGaborBoth.png,Red.mp3,red,top,118,38,1,,,,1,38,118,4,2352.227657958021,,,,,,,,,,,,,,,,top,,,,,,,,2352.2135544580233,2353.97809400002,2353.9782598750025,2359.227796291001,2359.2354045830143,2360.4777705830056,2360.4810059160227,2361.1781897910114,2361.1802578750066,2362.161899416009,allgreen,FinalRedContrast,FinalGreenContrast,2362.1653333750146,2363.7952683330222,2,042126mf,001,2026-04-21_10h21.54.799,priming,,2026.1.3,59.990401651211016,2026-04-21 10h21.55.130806 -0700,
GR_Congruent_RedCue_RedProbe_Top,GreenGaborBoth.png,RedGaborBoth.png,GreenGaborBoth.png,RedGaborDisappearTop.png,Red.mp3,red,top,119,39,1,,,,1,39,119,40,2363.8110815000255,,,,,,,,,,,,,,,,top,,,,,,,,2363.7953676660254,2365.694820708013,2365.694985000009,2370.9443685000006,2370.9509430000035,2372.194520250021,2372.197501583025,2372.9949632500065,2372.9970166660205,2373.6289320000215,mostlygreen,FinalRedContrast,FinalGreenContrast,2373.6314576660225,2374.111995583022,2,042126mf,001,2026-04-21_10h21.54.799,priming,,2026.1.3,59.990401651211016,2026-04-21 10h21.55.130806 -0700,
GG_non_riv_catch_RedCue_GreenProbe_Bottom,GreenGaborBoth.png,Blank.png,GreenGaborDisappearBottom.png,Blank.png,Red.mp3,red,bottom,120,40,1,,,,1,40,120,77,2374.1277692080184,,,,,,,,,,,,,,,,bottom,,,,,,,,2374.112094666023,2374.894757541013,2374.8949173750007,2380.1443707910075,2380.1507105410274,2381.394563708018,2381.3964397080126,2381.9952102500247,2381.998027624999,2383.0120930830017,allgreen,FinalRedContrast,FinalGreenContrast,2383.016192208015,2383.87874837502,2,042126mf,001,2026-04-21_10h21.54.799,priming,,2026.1.3,59.990401651211016,2026-04-21 10h21.55.130806 -0700,
GR_Incongruent_GreenCue_RedProbe_Top,GreenGaborBoth.png,RedGaborBoth.png,GreenGaborBoth.png,RedGaborDisappearTop.png,Green.mp3,green,top,121,41,1,,,,1,41,121,54,2383.8944579580275,,,,,,,,,,,,,,,,top,,,,,,,,2383.8806410410034,2389.944836166018,2389.9449970410205,2395.194527625019,2395.2012170000235,2396.444487041008,2396.4483092910086,2398.6283528750064,2398.6317397500097,2399.42907475002,allgreen,FinalRedContrast,FinalGreenContrast,2399.431752541015,2401.5119625830266,2,042126mf,001,2026-04-21_10h21.54.799,priming,,2026.1.3,59.990401651211016,2026-04-21 10h21.55.130806 -0700,
GR_Congruent_GreenCue_GreenProbe_Top,GreenGaborBoth.png,RedGaborBoth.png,GreenGaborDisappearTop.png,RedGaborBoth.png,Green.mp3,green,top,122,42,1,,,,1,42,122,50,2401.5278108330094,,,,,,,,,,,,,,,,top,,,,,,,,2401.5120617909997,2403.4448800410028,2403.445044666005,2408.6945965000195,2408.7012485830055,2409.944635083026,2409.9476500000164,2412.5953850830265,2412.5960374580172,2413.9455417910067,allgreen,FinalRedContrast,FinalGreenContrast,2413.9490485830174,2415.128875375027,2,042126mf,001,2026-04-21_10h21.54.799,priming,,2026.1.3,59.990401651211016,2026-04-21 10h21.55.130806 -0700,
GR_Incongruent_GreenCue_RedProbe_Top,GreenGaborBoth.png,RedGaborBoth.png,GreenGaborBoth.png,RedGaborDisappearTop.png,Green.mp3,green,top,123,43,1,,,,1,43,123,38,2415.1446130410186,,,,,,,,,,,,,,,,top,,,,,,,,2415.128977041022,2416.1449980830075,2416.145161125023,2421.3946956660075,2421.4014068750257,2422.644709291024,2422.647982708004,2423.445034833014,2423.4484625410114,2424.612135416013,mostlygreen,FinalRedContrast,FinalGreenContrast,2424.615993583022,2425.8455034580256,2,042126mf,001,2026-04-21_10h21.54.799,priming,,2026.1.3,59.990401651211016,2026-04-21 10h21.55.130806 -0700,
GR_Congruent_GreenCue_GreenProbe_Bottom,GreenGaborBoth.png,RedGaborBoth.png,GreenGaborDisappearBottom.png,RedGaborBoth.png,Green.mp3,green,bottom,124,44,1,,,,1,44,124,27,2425.861282583006,,,,,,,,,,,,,,,,bottom,,,,,,,,2425.8456026250205,2427.1617094580142,2427.1618780830177,2432.411361291015,2432.418034250004,2433.6613920410164,2433.664237791003,2435.0121613330266,2435.0142630830233,2437.595448833017,allgreen,FinalRedContrast,FinalGreenContrast,2437.5990544160013,2438.76218720802,2,042126mf,001,2026-04-21_10h21.54.799,priming,,2026.1.3,59.990401651211016,2026-04-21 10h21.55.130806 -0700,
GR_Incongruent_RedCue_GreenProbe_Top,GreenGaborBoth.png,RedGaborBoth.png,GreenGaborDisappearTop.png,RedGaborBoth.png,Red.mp3,red,top,125,45,1,,,,1,45,125,28,2438.7779412500095,,,,,,,,,,,,,,,,top,,,,,,,,2438.7638304580178,2440.4283654580067,2440.42852729102,2445.6781461659994,2445.6847324160044,2446.9282285410154,2446.9320393750095,2447.595643125009,2447.5961951659992,2448.6289593330002,allgreen,FinalRedContrast,FinalGreenContrast,2448.632217166014,2449.3290139160235,2,042126mf,001,2026-04-21_10h21.54.799,priming,,2026.1.3,59.990401651211016,2026-04-21 10h21.55.130806 -0700,
GR_Congruent_RedCue_RedProbe_Bottom,GreenGaborBoth.png,RedGaborBoth.png,GreenGaborBoth.png,RedGaborDisappearBottom.png,Red.mp3,red,bottom,126,46,1,,,,1,46,126,49,2449.3447375000105,,,,,,,,,,,,,,,,bottom,,,,,,,,2449.329117166024,2453.2618395000172,2453.262004500022,2458.5115461660025,2458.5191940830264,2459.761532125005,2459.763457041001,2460.561919166008,2460.563956958009,2462.5956243750115,allgreen,FinalRedContrast,FinalGreenContrast,2462.598914916016,2464.0623315000266,2,042126mf,001,2026-04-21_10h21.54.799,priming,,2026.1.3,59.990401651211016,2026-04-21 10h21.55.130806 -0700,
GR_Incongruent_RedCue_GreenProbe_Bottom,GreenGaborBoth.png,RedGaborBoth.png,GreenGaborDisappearBottom.png,RedGaborBoth.png,Red.mp3,red,bottom,127,47,1,,,,1,47,127,37,2464.0779932500154,,,,,,,,,,,,,,,,bottom,,,,,,,,2464.062435208005,2475.1118009160273,2475.111966291006,2480.3616268750047,2480.3690182080027,2481.6116125000117,2481.61502633302,2482.9953856659995,2482.998088000022,2484.5624517910182,mostlyred,FinalRedContrast,FinalGreenContrast,2484.5654601250135,2485.479144041019,2,042126mf,001,2026-04-21_10h21.54.799,priming,,2026.1.3,59.990401651211016,2026-04-21 10h21.55.130806 -0700,
GR_Incongruent_RedCue_GreenProbe_Top,GreenGaborBoth.png,RedGaborBoth.png,GreenGaborDisappearTop.png,RedGaborBoth.png,Red.mp3,red,top,128,48,1,,,,1,48,128,36,2485.49486812501,,,,,,,,,,,,,,,,top,,,,,,,,2485.4792449580273,2486.81218495802,2486.8123537909996,2492.0616315410007,2492.06922783301,2493.311597208027,2493.3140262910165,2494.012393333018,2494.0143404580012,2494.9124551250134,mostlygreen,FinalRedContrast,FinalGreenContrast,2494.9159212910163,2496.9790135830117,2,042126mf,001,2026-04-21_10h21.54.799,priming,,2026.1.3,59.990401651211016,2026-04-21 10h21.55.130806 -0700,
GR_Congruent_RedCue_RedProbe_Bottom,GreenGaborBoth.png,RedGaborBoth.png,GreenGaborBoth.png,RedGaborDisappearBottom.png,Red.mp3,red,bottom,129,49,1,,,,1,49,129,33,2496.9948907910148,,,,,,,,,,,,,,,,bottom,,,,,,,,2496.979117333016,2498.4119412500004,2498.412107958022,2503.6616337910236,2503.668580166006,2504.911705166014,2504.9137640000263,2505.6124477910053,2505.6152874580002,2510.495942083013,allgreen,FinalRedContrast,FinalGreenContrast,2510.4991948330135,2512.3625902910135,2,042126mf,001,2026-04-21_10h21.54.799,priming,,2026.1.3,59.990401651211016,2026-04-21 10h21.55.130806 -0700,
GR_Incongruent_GreenCue_RedProbe_Bottom,GreenGaborBoth.png,RedGaborBoth.png,GreenGaborBoth.png,RedGaborDisappearBottom.png,Green.mp3,green,bottom,130,50,1,,,,1,50,130,71,2512.3783169160015,,,,,,,,,,,,,,,,top,,,,,,,,2512.364471916022,2516.3958318750083,2516.3960031250026,2521.645096916007,2521.6517137910123,2522.8950662910065,2522.8974994160235,2525.7621558750106,2525.7644754160137,2528.0126120410278,allgreen,FinalRedContrast,FinalGreenContrast,2528.0161522910057,2528.912562250014,2,042126mf,001,2026-04-21_10h21.54.799,priming,,2026.1.3,59.990401651211016,2026-04-21 10h21.55.130806 -0700,
GR_Congruent_RedCue_RedProbe_Bottom,GreenGaborBoth.png,RedGaborBoth.png,GreenGaborBoth.png,RedGaborDisappearBottom.png,Red.mp3,red,bottom,131,51,1,,,,1,51,131,65,2528.928372082999,,,,,,,,,,,,,,,,bottom,,,,,,,,2528.914160666027,2531.5122128330113,2531.5123801660084,2536.761744041025,2536.7683306250256,2538.011830125004,2538.015524291026,2539.012247000006,2539.014971666009,2540.4793725410127,mostlygreen,FinalRedContrast,FinalGreenContrast,2540.4835049160174,2541.7460882080195,2,042126mf,001,2026-04-21_10h21.54.799,priming,,2026.1.3,59.990401651211016,2026-04-21 10h21.55.130806 -0700,
GR_Congruent_RedCue_RedProbe_Bottom,GreenGaborBoth.png,RedGaborBoth.png,GreenGaborBoth.png,RedGaborDisappearBottom.png,Red.mp3,red,bottom,132,52,1,,,,1,52,132,57,2541.761750833015,,,,,,,,,,,,,,,,bottom,,,,,,,,2541.746188916004,2544.7291187080264,2544.729286125017,2549.97857716601,2549.9852030830225,2551.2285799160018,2551.232195166027,2553.2790175000264,2553.2813775410177,2555.3626797500183,mostlygreen,FinalRedContrast,FinalGreenContrast,2555.366395707999,2556.36267612502,2,042126mf,001,2026-04-21_10h21.54.799,priming,,2026.1.3,59.990401651211016,2026-04-21 10h21.55.130806 -0700,
GR_Incongruent_GreenCue_RedProbe_Bottom,GreenGaborBoth.png,RedGaborBoth.png,GreenGaborBoth.png,RedGaborDisappearBottom.png,Green.mp3,green,bottom,133,53,1,,,,1,53,133,23,2556.378460916021,,,,,,,,,,,,,,,,bottom,,,,,,,,2556.364551708015,2557.1122695830127,2557.1124352910265,2562.3618793330097,2562.368529500003,2563.6118625410018,2563.6143610830186,2565.0457515830058,2565.048034041014,2566.1293346250022,allgreen,FinalRedContrast,FinalGreenContrast,2566.1325060830277,2569.0959937080042,2,042126mf,001,2026-04-21_10h21.54.799,priming,,2026.1.3,59.990401651211016,2026-04-21 10h21.55.130806 -0700,
GR_Congruent_RedCue_RedProbe_Bottom,GreenGaborBoth.png,RedGaborBoth.png,GreenGaborBoth.png,RedGaborDisappearBottom.png,Red.mp3,red,bottom,134,54,1,,,,1,54,134,9,2569.11176554102,,,,,,,,,,,,,,,,bottom,,,,,,,,2569.0977627910033,2570.2788220410002,2570.278989375016,2575.528696458001,2575.535411250021,2576.7786928749993,2576.781248000014,2577.779413208016,2577.7801025000226,2578.796238916024,allgreen,FinalRedContrast,FinalGreenContrast,2578.7997378330037,2580.196563583013,2,042126mf,001,2026-04-21_10h21.54.799,priming,,2026.1.3,59.990401651211016,2026-04-21 10h21.55.130806 -0700,
GR_Congruent_GreenCue_GreenProbe_Top,GreenGaborBoth.png,RedGaborBoth.png,GreenGaborDisappearTop.png,RedGaborBoth.png,Green.mp3,green,top,135,55,1,,,,1,55,135,58,2580.2118960830267,,,,,,,,,,,,,,,,top,,,,,,,,2580.1984421660018,2580.8956789580116,2580.8958415830275,2586.1453536250046,2586.152966875001,2587.395401958027,2587.3985773750173,2589.379066916008,2589.3818359160214,2591.0294820000126,allgreen,FinalRedContrast,FinalGreenContrast,2591.032733666012,2592.329484916001,2,042126mf,001,2026-04-21_10h21.54.799,priming,,2026.1.3,59.990401651211016,2026-04-21 10h21.55.130806 -0700,
GR_Incongruent_GreenCue_RedProbe_Top,GreenGaborBoth.png,RedGaborBoth.png,GreenGaborBoth.png,RedGaborDisappearTop.png,Green.mp3,green,top,136,56,1,,,,1,56,136,6,2592.3452637080045,,,,,,,,,,,,,,,,top,,,,,,,,2592.329587083019,2593.2789085410186,2593.2790780409996,2598.528715750028,2598.5363311660185,2599.778536833008,2599.7803844160226,2601.2290749580134,2601.232122041023,2601.862881833018,allgreen,FinalRedContrast,FinalGreenContrast,2601.866310833022,2603.212969291024,2,042126mf,001,2026-04-21_10h21.54.799,priming,,2026.1.3,59.990401651211016,2026-04-21 10h21.55.130806 -0700,
GR_Congruent_GreenCue_GreenProbe_Bottom,GreenGaborBoth.png,RedGaborBoth.png,GreenGaborDisappearBottom.png,RedGaborBoth.png,Green.mp3,green,bottom,137,57,1,,,,1,57,137,19,2603.2287236660195,,,,,,,,,,,,,,,,bottom,,,,,,,,2603.213068208017,2603.779118291015,2603.7792810000246,2609.0287919580005,2609.036538291024,2610.2788844160095,2610.282897875004,2610.8959940000204,2610.898360291001,2612.5296527910104,allgreen,FinalRedContrast,FinalGreenContrast,2612.532124875026,2614.046294166008,2,042126mf,001,2026-04-21_10h21.54.799,priming,,2026.1.3,59.990401651211016,2026-04-21 10h21.55.130806 -0700,
