label,LstartingStim,RstartingStim,LvisualStim,RvisualStim,audioCue,visualCue,probe_loc,thisN,thisTrialN,thisRepN,staircase.thisTrialN,staircase.stepSize,staircase.intensity,trials.thisRepN,trials.thisTrialN,trials.thisN,trials.thisIndex,thisRow.t,notes,piloting,stim offset,continue_resp.keys,continue_resp.rt,continue_resp.duration,fixation.started,fixation.stopped,greenContrast,redContrast,adjusted_contrast.started,adjusted_contrast.stopped,staircase_response.started,staircase_response.stopped,stair_response,probe_response,staircase.response,prevTrial,isRed,isReversal,cumReversal,contrastArray,contrastAverage,start_trial.started,start_trial.stopped,cue.started,cue.stopped,probe.started,probe.stopped,probe_response.started,probe_response.stopped,subjective_response.started,subjective_response.stopped,subj_response,RedContrast,GreenContrast,vividness_response.started,vividness_response.stopped,vivid_response,participant,session,date,expName,expVersion,psychopyVersion,frameRate,expStart,
,,,,,,,,,,,,,,,,,,,,False,0.33199999999999996,,,,,,,,,,,,,,,,,,,,,,,,,,,,,,,,,,,,,051226kg,001,2026-05-12_10h14.19.149,priming,,2026.1.3,59.997389993531314,2026-05-12 10h14.19.485922 -0700,
,,,,,,,,,,,,,,,,,,,,,,space,26.26453445800007,None,,,,,,,,,,,,,,,,,,,,,,,,,,,,,,,,,,051226kg,001,2026-05-12_10h14.19.149,priming,,2026.1.3,59.997389993531314,2026-05-12 10h14.19.485922 -0700,
,,,,,,,,,,,0,0.2,0.5,,,,,35.180442416999995,,,,,,,35.1649334169997,36.16411145799975,0.5,0.5,36.17101474999981,37.91386904199999,37.91912629199987,39.898351207999895,mostlyred,red,1,1000,1,0,0,[],0,,,,,,,,,,,,,,,,,051226kg,001,2026-05-12_10h14.19.149,priming,,2026.1.3,59.997389993531314,2026-05-12 10h14.19.485922 -0700,
,,,,,,,,,,,1,0.1,0.3,,,,,39.91398858299999,,,,,,,39.898669749999954,40.89722120799979,0.7,0.3,40.90130991699971,42.64723249999997,42.64891754199971,44.165232082999864,mostlygreen,green,0,1,0,1,1,[],0,,,,,,,,,,,,,,,,,051226kg,001,2026-05-12_10h14.19.149,priming,,2026.1.3,59.997389993531314,2026-05-12 10h14.19.485922 -0700,
,,,,,,,,,,,2,0.1,0.4,,,,,44.180425042000024,,,,,,,44.165497624999716,45.16474170799984,0.6,0.4,45.16890420799973,46.91385620799974,46.91552324999975,47.897982791999766,mostlygreen,green,0,0,0,0,1,[],0,,,,,,,,,,,,,,,,,051226kg,001,2026-05-12_10h14.19.149,priming,,2026.1.3,59.997389993531314,2026-05-12 10h14.19.485922 -0700,
,,,,,,,,,,,3,0.1,0.5,,,,,47.91376624999975,,,,,,,47.89824933299997,48.89719391699964,0.5,0.5,48.90093533299978,50.647197416999916,50.648518666999735,51.38154404199986,mostlyred,red,1,0,1,1,2,[],0,,,,,,,,,,,,,,,,,051226kg,001,2026-05-12_10h14.19.149,priming,,2026.1.3,59.997389993531314,2026-05-12 10h14.19.485922 -0700,
,,,,,,,,,,,4,0.1,0.4,,,,,51.397232583000005,,,,,,,51.381810374999986,52.38068249999969,0.6,0.4,52.38436445799971,54.130643874999805,54.13193112499994,55.481441916999756,mostlyred,red,1,1,1,0,2,[],0,,,,,,,,,,,,,,,,,051226kg,001,2026-05-12_10h14.19.149,priming,,2026.1.3,59.997389993531314,2026-05-12 10h14.19.485922 -0700,
,,,,,,,,,,,5,0.05,0.30000000000000004,,,,,55.49714604199971,,,,,,,55.48171079199983,56.480609749999985,0.7,0.30000000000000004,56.48458737500005,58.23052199999984,58.231854916999964,59.51471908299982,mostlygreen,green,0,1,0,1,3,[],0,,,,,,,,,,,,,,,,,051226kg,001,2026-05-12_10h14.19.149,priming,,2026.1.3,59.997389993531314,2026-05-12 10h14.19.485922 -0700,
,,,,,,,,,,,6,0.05,0.35000000000000003,,,,,59.53050379199976,,,,,,,59.51498745799972,60.513895124999635,0.6499999999999999,0.35000000000000003,60.517611957999634,62.26393608299986,62.26512245799995,62.881407832999685,mostlygreen,green,0,0,0,0,3,[],0,,,,,,,,,,,,,,,,,051226kg,001,2026-05-12_10h14.19.149,priming,,2026.1.3,59.997389993531314,2026-05-12 10h14.19.485922 -0700,
,,,,,,,,,,,7,0.05,0.4,,,,,62.89720604199965,,,,,,,62.881697082999835,63.880851082999925,0.6,0.4,63.88490720799973,65.63087833300006,65.63204170799963,66.88173941700006,mostlygreen,green,0,0,0,0,3,[],0,,,,,,,,,,,,,,,,,051226kg,001,2026-05-12_10h14.19.149,priming,,2026.1.3,59.997389993531314,2026-05-12 10h14.19.485922 -0700,
,,,,,,,,,,,8,0.05,0.45,,,,,66.89726620800002,,,,,,,66.88201541699982,67.88100699999995,0.55,0.45,67.88564204199974,69.63059779199966,69.63199074999966,70.28152558300008,mostlygreen,green,0,0,0,0,3,[],0,,,,,,,,,,,,,,,,,051226kg,001,2026-05-12_10h14.19.149,priming,,2026.1.3,59.997389993531314,2026-05-12 10h14.19.485922 -0700,
,,,,,,,,,,,9,0.05,0.5,,,,,70.29726554199988,,,,,,,70.28183933299988,71.28060525000001,0.5,0.5,71.28453316700006,73.03057829199997,73.03148562499973,73.99817795799981,mostlygreen,green,0,0,0,0,3,[],0,,,,,,,,,,,,,,,,,051226kg,001,2026-05-12_10h14.19.149,priming,,2026.1.3,59.997389993531314,2026-05-12 10h14.19.485922 -0700,
,,,,,,,,,,,10,0.05,0.55,,,,,74.0138150419998,,,,,,,73.99844558299992,74.99727274999987,0.44999999999999996,0.55,75.00149870799987,76.747494792,76.74913458299989,77.49826187500003,mostlyred,red,1,0,1,1,4,[],0,,,,,,,,,,,,,,,,,051226kg,001,2026-05-12_10h14.19.149,priming,,2026.1.3,59.997389993531314,2026-05-12 10h14.19.485922 -0700,
,,,,,,,,,,,11,0.05,0.5,,,,,77.51395604199979,,,,,,,77.49854645799996,78.49730724999972,0.5,0.5,78.50130549999994,80.2473399999999,80.24926333299982,82.06482262500003,mostlyred,red,1,1,1,0,4,[],0,,,,,,,,,,,,,,,,,051226kg,001,2026-05-12_10h14.19.149,priming,,2026.1.3,59.997389993531314,2026-05-12 10h14.19.485922 -0700,
,,,,,,,,,,,12,0.025,0.45,,,,,82.08058645799974,,,,,,,82.06515575000003,83.06398616699971,0.55,0.45,83.0678816249997,84.81386075,84.81579258300007,85.73172225000008,mostlygreen,green,0,1,0,1,5,[],0,,,,,,,,,,,,,,,,,051226kg,001,2026-05-12_10h14.19.149,priming,,2026.1.3,59.997389993531314,2026-05-12 10h14.19.485922 -0700,
,,,,,,,,,,,13,0.025,0.47500000000000003,,,,,85.74728383299998,,,,,,,85.73201008299975,86.73057633300004,0.5249999999999999,0.47500000000000003,86.73463137499994,88.48052520800002,88.48190974999989,89.01472799999965,mostlygreen,green,0,0,0,0,5,[],0,,,,,,,,,,,,,,,,,051226kg,001,2026-05-12_10h14.19.149,priming,,2026.1.3,59.997389993531314,2026-05-12 10h14.19.485922 -0700,
,,,,,,,,,,,14,0.025,0.5,,,,,89.03042962499967,,,,,,,89.01500954199992,90.01381970800003,0.5,0.5,90.01754449999999,91.76385937499981,91.76531383299971,94.31471537499965,mostlygreen,green,0,0,0,0,5,[],0,,,,,,,,,,,,,,,,,051226kg,001,2026-05-12_10h14.19.149,priming,,2026.1.3,59.997389993531314,2026-05-12 10h14.19.485922 -0700,
,,,,,,,,,,,15,0.025,0.525,,,,,94.33041966699966,,,,,,,94.31498024999973,95.3140683329998,0.475,0.525,95.31793279199974,97.06391600000006,97.06538458299974,97.99803962499982,mostlyred,red,1,0,1,1,6,[0.525],0.525,,,,,,,,,,,,,,,,,051226kg,001,2026-05-12_10h14.19.149,priming,,2026.1.3,59.997389993531314,2026-05-12 10h14.19.485922 -0700,
,,,,,,,,,,,16,0.025,0.5,,,,,98.01373687499972,,,,,,,97.99835995800004,98.9972601669997,0.5,0.5,99.00098795799977,100.74719491699989,100.74866216700002,102.14803262499981,mostlyred,red,1,1,1,0,6,[0.525],0.525,,,,,,,,,,,,,,,,,051226kg,001,2026-05-12_10h14.19.149,priming,,2026.1.3,59.997389993531314,2026-05-12 10h14.19.485922 -0700,
,,,,,,,,,,,17,0.025,0.475,,,,,102.16380649999974,,,,,,,102.14830379199975,103.14723562499967,0.525,0.475,103.15111499999966,104.8972907919997,104.89907541699995,106.16534495799988,mostlyred,red,1,1,1,0,6,[0.525],0.525,,,,,,,,,,,,,,,,,051226kg,001,2026-05-12_10h14.19.149,priming,,2026.1.3,59.997389993531314,2026-05-12 10h14.19.485922 -0700,
,,,,,,,,,,,18,0.025,0.44999999999999996,,,,,106.18043908299978,,,,,,,106.16560887499963,107.16386116700005,0.55,0.44999999999999996,107.16737349999994,108.91389037499994,108.91554670799997,110.48122208299992,mostlyred,red,1,1,1,0,6,[0.525],0.525,,,,,,,,,,,,,,,,,051226kg,001,2026-05-12_10h14.19.149,priming,,2026.1.3,59.997389993531314,2026-05-12 10h14.19.485922 -0700,
,,,,,,,,,,,19,0.025,0.42499999999999993,,,,,110.49716762499975,,,,,,,110.48152483299964,111.48063324999976,0.5750000000000001,0.42499999999999993,111.4842618749999,113.2305570829999,113.23208566699986,116.21458879200009,mostlyred,red,1,1,1,0,6,[0.525],0.525,,,,,,,,,,,,,,,,,051226kg,001,2026-05-12_10h14.19.149,priming,,2026.1.3,59.997389993531314,2026-05-12 10h14.19.485922 -0700,
,,,,,,,,,,,20,0.025,0.3999999999999999,,,,,116.23046891700005,,,,,,,116.21483904199977,117.21388679199981,0.6000000000000001,0.3999999999999999,117.21732879199999,118.96373291700002,118.96545054199987,119.96487816699982,mostlygreen,green,0,1,0,1,7,"[0.525, 0.3999999999999999]",0.46249999999999997,,,,,,,,,,,,,,,,,051226kg,001,2026-05-12_10h14.19.149,priming,,2026.1.3,59.997389993531314,2026-05-12 10h14.19.485922 -0700,
,,,,,,,,,,,21,0.025,0.42499999999999993,,,,,119.98045087499986,,,,,,,119.96513516699997,120.96386399999983,0.5750000000000001,0.42499999999999993,120.96730070800004,122.71387279200007,122.71530299999995,124.06455133300005,mostlygreen,green,0,0,0,0,7,"[0.525, 0.3999999999999999]",0.46249999999999997,,,,,,,,,,,,,,,,,051226kg,001,2026-05-12_10h14.19.149,priming,,2026.1.3,59.997389993531314,2026-05-12 10h14.19.485922 -0700,
,,,,,,,,,,,22,0.025,0.44999999999999996,,,,,124.08042350000005,,,,,,,124.06480083299994,125.06374812500007,0.55,0.44999999999999996,125.06718554200006,126.81385608299979,126.81528570799992,127.66452624999965,mostlyred,red,1,0,1,1,8,"[0.525, 0.3999999999999999, 0.44999999999999996]",0.4583333333333333,,,,,,,,,,,,,,,,,051226kg,001,2026-05-12_10h14.19.149,priming,,2026.1.3,59.997389993531314,2026-05-12 10h14.19.485922 -0700,
,,,,,,,,,,,23,0.025,0.42499999999999993,,,,,127.68046787499998,,,,,,,127.66477662499983,128.66381704199966,0.5750000000000001,0.42499999999999993,128.667203083,130.41376354199974,130.415736208,131.3312125829998,mostlyred,red,1,1,1,0,8,"[0.525, 0.3999999999999999, 0.44999999999999996]",0.4583333333333333,,,,,,,,,,,,,,,,,051226kg,001,2026-05-12_10h14.19.149,priming,,2026.1.3,59.997389993531314,2026-05-12 10h14.19.485922 -0700,
,,,,,,,,,,,24,0.025,0.3999999999999999,,,,,131.34700816699979,,,,,,,131.33145845799982,132.33052762499983,0.6000000000000001,0.3999999999999999,132.33395804199972,134.08062524999968,134.08216170800006,134.514543625,mostlyred,red,1,1,1,0,8,"[0.525, 0.3999999999999999, 0.44999999999999996]",0.4583333333333333,,,,,,,,,,,,,,,,,051226kg,001,2026-05-12_10h14.19.149,priming,,2026.1.3,59.997389993531314,2026-05-12 10h14.19.485922 -0700,
,,,,,,,,,,,25,0.025,0.3749999999999999,,,,,134.53043979199992,,,,,,,134.5147899169997,135.513841167,0.6250000000000001,0.3749999999999999,135.5172725829998,137.26385574999995,137.26503699999967,138.39790645799985,mostlygreen,green,0,1,0,1,9,"[0.525, 0.3999999999999999, 0.44999999999999996, 0.3749999999999999]",0.4375,,,,,,,,,,,,,,,,,051226kg,001,2026-05-12_10h14.19.149,priming,,2026.1.3,59.997389993531314,2026-05-12 10h14.19.485922 -0700,
,,,,,,,,,,,26,0.025,0.3999999999999999,,,,,138.41372499999989,,,,,,,138.39815870799976,139.3972010829998,0.6000000000000001,0.3999999999999999,139.40070054199987,141.14738429199997,141.14786666700002,141.64788179199968,mostlygreen,green,0,0,0,0,9,"[0.525, 0.3999999999999999, 0.44999999999999996, 0.3749999999999999]",0.4375,,,,,,,,,,,,,,,,,051226kg,001,2026-05-12_10h14.19.149,priming,,2026.1.3,59.997389993531314,2026-05-12 10h14.19.485922 -0700,
,,,,,,,,,,,27,0.025,0.42499999999999993,,,,,141.6637755419997,,,,,,,141.64812729200003,142.64722387499978,0.5750000000000001,0.42499999999999993,142.65065816700007,144.39722112499976,144.3983358329997,144.93119420799985,mostlyred,red,1,0,1,1,10,"[0.525, 0.3999999999999999, 0.44999999999999996, 0.3749999999999999, 0.42499999999999993]",0.43499999999999994,,,,,,,,,,,,,,,,,051226kg,001,2026-05-12_10h14.19.149,priming,,2026.1.3,59.997389993531314,2026-05-12 10h14.19.485922 -0700,
,,,,,,,,,,,28,0.025,0.3999999999999999,,,,,144.94705758300006,,,,,,,144.9314509579999,145.93053708299976,0.6000000000000001,0.3999999999999999,145.9339507499999,147.68057983299968,147.68238541699975,148.31456795799977,mostlygreen,green,0,1,0,1,11,"[0.525, 0.3999999999999999, 0.44999999999999996, 0.3749999999999999, 0.42499999999999993, 0.3999999999999999]",0.42916666666666664,,,,,,,,,,,,,,,,,051226kg,001,2026-05-12_10h14.19.149,priming,,2026.1.3,59.997389993531314,2026-05-12 10h14.19.485922 -0700,
,,,,,,,,,,,29,0.025,0.42499999999999993,,,,,148.33046454199985,,,,,,,148.31482737499982,149.31388070799994,0.5750000000000001,0.42499999999999993,149.31737649999968,151.06382474999964,151.065295375,153.06463208299965,mostlyred,red,1,0,1,1,12,"[0.525, 0.3999999999999999, 0.44999999999999996, 0.3749999999999999, 0.42499999999999993, 0.3999999999999999, 0.42499999999999993]",0.4285714285714285,,,,,,,,,,,,,,,,,051226kg,001,2026-05-12_10h14.19.149,priming,,2026.1.3,59.997389993531314,2026-05-12 10h14.19.485922 -0700,
,,,,,,,,,,,30,0.025,0.3999999999999999,,,,,153.08048362499994,,,,,,,153.06488391699986,154.0638416669999,0.6000000000000001,0.3999999999999999,154.06732483299993,155.81387425000003,155.815838042,156.68129866699974,mostlyred,red,1,1,1,0,12,"[0.525, 0.3999999999999999, 0.44999999999999996, 0.3749999999999999, 0.42499999999999993, 0.3999999999999999, 0.42499999999999993]",0.4285714285714285,,,,,,,,,,,,,,,,,051226kg,001,2026-05-12_10h14.19.149,priming,,2026.1.3,59.997389993531314,2026-05-12 10h14.19.485922 -0700,
,,,,,,,,,,,31,0.025,0.3749999999999999,,,,,156.69714225000007,,,,,,,156.68161233299998,157.68050858299966,0.6250000000000001,0.3749999999999999,157.683879875,159.43054737500006,159.43235624999988,160.01455370799977,mostlyred,red,1,1,1,0,12,"[0.525, 0.3999999999999999, 0.44999999999999996, 0.3749999999999999, 0.42499999999999993, 0.3999999999999999, 0.42499999999999993]",0.4285714285714285,,,,,,,,,,,,,,,,,051226kg,001,2026-05-12_10h14.19.149,priming,,2026.1.3,59.997389993531314,2026-05-12 10h14.19.485922 -0700,
,,,,,,,,,,,32,0.025,0.34999999999999987,,,,,160.030509875,,,,,,,160.0147993329997,161.01385604200004,0.6500000000000001,0.34999999999999987,161.01732300000003,162.76380945799974,162.76552379199984,163.7644463329998,mostlygreen,green,0,1,0,1,13,"[0.525, 0.3999999999999999, 0.44999999999999996, 0.3749999999999999, 0.42499999999999993, 0.3999999999999999, 0.42499999999999993, 0.34999999999999987]",0.41874999999999996,,,,,,,,,,,,,,,,,051226kg,001,2026-05-12_10h14.19.149,priming,,2026.1.3,59.997389993531314,2026-05-12 10h14.19.485922 -0700,
,,,,,,,,,,,33,0.025,0.3749999999999999,,,,,163.78044529199997,,,,,,,163.7646978329999,164.76386054199975,0.6250000000000001,0.3749999999999999,164.767285292,166.51391195799988,166.51529600000003,167.54828495799984,mostlygreen,green,0,0,0,0,13,"[0.525, 0.3999999999999999, 0.44999999999999996, 0.3749999999999999, 0.42499999999999993, 0.3999999999999999, 0.42499999999999993, 0.34999999999999987]",0.41874999999999996,,,,,,,,,,,,,,,,,051226kg,001,2026-05-12_10h14.19.149,priming,,2026.1.3,59.997389993531314,2026-05-12 10h14.19.485922 -0700,
,,,,,,,,,,,34,0.025,0.3999999999999999,,,,,167.56383170799973,,,,,,,167.5485344169997,168.5471819999998,0.6000000000000001,0.3999999999999999,168.5506460419997,170.29712900000004,170.2987280829998,171.58117370799982,mostlygreen,green,0,0,0,0,13,"[0.525, 0.3999999999999999, 0.44999999999999996, 0.3749999999999999, 0.42499999999999993, 0.3999999999999999, 0.42499999999999993, 0.34999999999999987]",0.41874999999999996,,,,,,,,,,,,,,,,,051226kg,001,2026-05-12_10h14.19.149,priming,,2026.1.3,59.997389993531314,2026-05-12 10h14.19.485922 -0700,
,,,,,,,,,,,35,0.025,0.42499999999999993,,,,,171.5971546249998,,,,,,,171.58148758299967,172.58052974999964,0.5750000000000001,0.42499999999999993,172.58405249999987,174.330670458,174.3319443749997,175.54825608300007,mostlyred,red,1,0,1,1,14,"[0.525, 0.3999999999999999, 0.44999999999999996, 0.3749999999999999, 0.42499999999999993, 0.3999999999999999, 0.42499999999999993, 0.34999999999999987, 0.42499999999999993]",0.4194444444444444,,,,,,,,,,,,,,,,,051226kg,001,2026-05-12_10h14.19.149,priming,,2026.1.3,59.997389993531314,2026-05-12 10h14.19.485922 -0700,
,,,,,,,,,,,36,0.025,0.3999999999999999,,,,,175.5639652499999,,,,,,,175.54857087499977,176.54721333299995,0.6000000000000001,0.3999999999999999,176.550669708,178.29729166700008,178.29875645799984,179.097961167,mostlygreen,green,0,1,0,1,15,"[0.525, 0.3999999999999999, 0.44999999999999996, 0.3749999999999999, 0.42499999999999993, 0.3999999999999999, 0.42499999999999993, 0.34999999999999987, 0.42499999999999993, 0.3999999999999999]",0.41749999999999987,,,,,,,,,,,,,,,,,051226kg,001,2026-05-12_10h14.19.149,priming,,2026.1.3,59.997389993531314,2026-05-12 10h14.19.485922 -0700,
,,,,,,,,,,,37,0.025,0.42499999999999993,,,,,179.11386637499982,,,,,,,179.09821191699984,180.09727816699979,0.5750000000000001,0.42499999999999993,180.10074054200004,181.84733416699964,181.84864170799983,182.91471458299975,mostlyred,red,1,0,1,1,16,"[0.525, 0.3999999999999999, 0.44999999999999996, 0.3749999999999999, 0.42499999999999993, 0.3999999999999999, 0.42499999999999993, 0.34999999999999987, 0.42499999999999993, 0.3999999999999999, 0.42499999999999993]",0.41818181818181804,,,,,,,,,,,,,,,,,051226kg,001,2026-05-12_10h14.19.149,priming,,2026.1.3,59.997389993531314,2026-05-12 10h14.19.485922 -0700,
,,,,,,,,,,,38,0.025,0.3999999999999999,,,,,182.93056258299976,,,,,,,182.9149874579998,183.91400454199993,0.6000000000000001,0.3999999999999999,183.91745583300008,185.66385870799968,185.66579887499984,187.09798766699987,mostlyred,red,1,1,1,0,16,"[0.525, 0.3999999999999999, 0.44999999999999996, 0.3749999999999999, 0.42499999999999993, 0.3999999999999999, 0.42499999999999993, 0.34999999999999987, 0.42499999999999993, 0.3999999999999999, 0.42499999999999993]",0.41818181818181804,,,,,,,,,,,,,,,,,051226kg,001,2026-05-12_10h14.19.149,priming,,2026.1.3,59.997389993531314,2026-05-12 10h14.19.485922 -0700,
,,,,,,,,,,,39,0.025,0.3749999999999999,,,,,187.11389908299998,,,,,,,187.09824041699994,188.09717737499977,0.6250000000000001,0.3749999999999999,188.10058875000004,189.84731816699968,189.8489909169998,192.0480119169997,allgreen,green,0,1,0,1,17,"[0.525, 0.3999999999999999, 0.44999999999999996, 0.3749999999999999, 0.42499999999999993, 0.3999999999999999, 0.42499999999999993, 0.34999999999999987, 0.42499999999999993, 0.3999999999999999, 0.42499999999999993, 0.3749999999999999]",0.41458333333333325,,,,,,,,,,,,,,,,,051226kg,001,2026-05-12_10h14.19.149,priming,,2026.1.3,59.997389993531314,2026-05-12 10h14.19.485922 -0700,
,,,,,,,,,,,40,0.025,0.3999999999999999,,,,,192.06397987499986,,,,,,,192.04830920799986,193.0472494579999,0.6000000000000001,0.3999999999999999,193.0506487079997,194.79730808299973,194.7990548329999,195.96470837499965,mostlyred,red,1,0,1,1,18,"[0.525, 0.3999999999999999, 0.44999999999999996, 0.3749999999999999, 0.42499999999999993, 0.3999999999999999, 0.42499999999999993, 0.34999999999999987, 0.42499999999999993, 0.3999999999999999, 0.42499999999999993, 0.3749999999999999, 0.3999999999999999]",0.4134615384615383,,,,,,,,,,,,,,,,,051226kg,001,2026-05-12_10h14.19.149,priming,,2026.1.3,59.997389993531314,2026-05-12 10h14.19.485922 -0700,
,,,,,,,,,,,41,0.025,0.3749999999999999,,,,,195.98055591699995,,,,,,,195.964964667,196.96398304199965,0.6250000000000001,0.3749999999999999,196.96747074999985,198.7139603329997,198.71594774999994,199.5813426249997,mostlyred,red,1,1,1,0,18,"[0.525, 0.3999999999999999, 0.44999999999999996, 0.3749999999999999, 0.42499999999999993, 0.3999999999999999, 0.42499999999999993, 0.34999999999999987, 0.42499999999999993, 0.3999999999999999, 0.42499999999999993, 0.3749999999999999, 0.3999999999999999]",0.4134615384615383,,,,,,,,,,,,,,,,,051226kg,001,2026-05-12_10h14.19.149,priming,,2026.1.3,59.997389993531314,2026-05-12 10h14.19.485922 -0700,
,,,,,,,,,,,42,0.025,0.34999999999999987,,,,,199.5972339169998,,,,,,,199.58159149999983,200.58064529199964,0.6500000000000001,0.34999999999999987,200.5840902079999,202.33061770799986,202.33195095799965,203.0979232919999,mostlygreen,green,0,1,0,1,19,"[0.525, 0.3999999999999999, 0.44999999999999996, 0.3749999999999999, 0.42499999999999993, 0.3999999999999999, 0.42499999999999993, 0.34999999999999987, 0.42499999999999993, 0.3999999999999999, 0.42499999999999993, 0.3749999999999999, 0.3999999999999999, 0.34999999999999987]",0.40892857142857125,,,,,,,,,,,,,,,,,051226kg,001,2026-05-12_10h14.19.149,priming,,2026.1.3,59.997389993531314,2026-05-12 10h14.19.485922 -0700,
,,,,,,,,,,,43,0.025,0.3749999999999999,,,,,203.11394141699975,,,,,,,203.09817437499987,204.09731516700003,0.6250000000000001,0.3749999999999999,204.100744458,205.84738008299973,205.84877241699996,206.6313961249998,mostlygreen,green,0,0,0,0,19,"[0.525, 0.3999999999999999, 0.44999999999999996, 0.3749999999999999, 0.42499999999999993, 0.3999999999999999, 0.42499999999999993, 0.34999999999999987, 0.42499999999999993, 0.3999999999999999, 0.42499999999999993, 0.3749999999999999, 0.3999999999999999, 0.34999999999999987]",0.40892857142857125,,,,,,,,,,,,,,,,,051226kg,001,2026-05-12_10h14.19.149,priming,,2026.1.3,59.997389993531314,2026-05-12 10h14.19.485922 -0700,
,,,,,,,,,,,44,0.025,0.3999999999999999,,,,,206.64727841700005,,,,,,,206.63164983299976,207.63067291700008,0.6000000000000001,0.3999999999999999,207.6341527919999,209.3805914579998,209.38215008299994,209.88125979200004,allgreen,green,0,0,0,0,19,"[0.525, 0.3999999999999999, 0.44999999999999996, 0.3749999999999999, 0.42499999999999993, 0.3999999999999999, 0.42499999999999993, 0.34999999999999987, 0.42499999999999993, 0.3999999999999999, 0.42499999999999993, 0.3749999999999999, 0.3999999999999999, 0.34999999999999987]",0.40892857142857125,,,,,,,,,,,,,,,,,051226kg,001,2026-05-12_10h14.19.149,priming,,2026.1.3,59.997389993531314,2026-05-12 10h14.19.485922 -0700,
,,,,,,,,,,,45,0.025,0.42499999999999993,,,,,209.89723449999974,,,,,,,209.88150899999982,210.88062595799965,0.5750000000000001,0.42499999999999993,210.88410350000004,212.63070212499997,212.63261662500008,215.53131470800008,mostlygreen,green,0,0,0,0,19,"[0.525, 0.3999999999999999, 0.44999999999999996, 0.3749999999999999, 0.42499999999999993, 0.3999999999999999, 0.42499999999999993, 0.34999999999999987, 0.42499999999999993, 0.3999999999999999, 0.42499999999999993, 0.3749999999999999, 0.3999999999999999, 0.34999999999999987]",0.40892857142857125,,,,,,,,,,,,,,,,,051226kg,001,2026-05-12_10h14.19.149,priming,,2026.1.3,59.997389993531314,2026-05-12 10h14.19.485922 -0700,
,,,,,,,,,,,46,0.025,0.44999999999999996,,,,,215.54718550000007,,,,,,,215.53156362499976,216.53087950000008,0.55,0.44999999999999996,216.53441024999984,218.28073354199978,218.28213941700005,219.19799762499997,mostlyred,red,1,0,1,1,20,"[0.525, 0.3999999999999999, 0.44999999999999996, 0.3749999999999999, 0.42499999999999993, 0.3999999999999999, 0.42499999999999993, 0.34999999999999987, 0.42499999999999993, 0.3999999999999999, 0.42499999999999993, 0.3749999999999999, 0.3999999999999999, 0.34999999999999987, 0.44999999999999996]",0.4116666666666665,,,,,,,,,,,,,,,,,051226kg,001,2026-05-12_10h14.19.149,priming,,2026.1.3,59.997389993531314,2026-05-12 10h14.19.485922 -0700,
,,,,,,,,,,,,,,,,,,,,,,space,64.1303493749997,None,,,,,,,,,,,,,,,,,,,,,,,,,,,,,,,,,,051226kg,001,2026-05-12_10h14.19.149,priming,,2026.1.3,59.997389993531314,2026-05-12 10h14.19.485922 -0700,
GR_Congruent_GreenCue_GreenProbe_Top,GreenGaborBoth.png,RedGaborBoth.png,GreenGaborDisappearTop.png,RedGaborBoth.png,Green.mp3,green,top,0,0,0,,,,0,0,0,42,283.4142472919998,,,,,,,,,,,,,,,,top,,,,,,,,283.39523329199983,287.51487275,287.51506245799965,292.76423966699986,292.7728703749999,294.01421354199965,294.01585562499986,297.564598208,297.5661327499997,299.8316588329999,mostlygreen,FinalRedContrast,FinalGreenContrast,299.8328471669997,301.2318652499998,5,051226kg,001,2026-05-12_10h14.19.149,priming,,2026.1.3,59.997389993531314,2026-05-12 10h14.19.485922 -0700,
GR_Congruent_RedCue_RedProbe_Top,GreenGaborBoth.png,RedGaborBoth.png,GreenGaborBoth.png,RedGaborDisappearTop.png,Red.mp3,red,top,1,1,0,,,,0,1,1,24,301.247510875,,,,,,,,,,,,,,,,top,,,,,,,,301.2336060419998,353.498166417,353.4983332500001,358.74782141700007,358.76188829199964,360.0144772499998,360.01605837499983,362.88158162499985,362.88283295799965,363.9819984579999,mostlygreen,FinalRedContrast,FinalGreenContrast,363.98260737500004,365.5820979169998,5,051226kg,001,2026-05-12_10h14.19.149,priming,,2026.1.3,59.997389993531314,2026-05-12 10h14.19.485922 -0700,
GR_Incongruent_RedCue_GreenProbe_Bottom,GreenGaborBoth.png,RedGaborBoth.png,GreenGaborDisappearBottom.png,RedGaborBoth.png,Red.mp3,red,bottom,2,2,0,,,,0,2,2,69,365.59781508299966,,,,,,,,,,,,,,,,bottom,,,,,,,,365.5821945829998,366.914826875,366.91499241699967,372.1644643750001,372.1726108749999,373.41443624999965,373.41643299999987,375.3981840829997,375.39942462499994,377.4319314999998,allgreen,FinalRedContrast,FinalGreenContrast,377.433155875,378.59874975,5,051226kg,001,2026-05-12_10h14.19.149,priming,,2026.1.3,59.997389993531314,2026-05-12 10h14.19.485922 -0700,
GR_Incongruent_GreenCue_RedProbe_Top,GreenGaborBoth.png,RedGaborBoth.png,GreenGaborBoth.png,RedGaborDisappearTop.png,Green.mp3,green,top,3,3,0,,,,0,3,3,54,378.6143596249999,,,,,,,,,,,,,,,,top,,,,,,,,378.60060504199964,379.79816354199966,379.7983302499997,385.0479044169997,385.05439824999985,386.29802037499985,386.2994879170001,387.34825620799984,387.3500325,388.98208129199975,mostlygreen,FinalRedContrast,FinalGreenContrast,388.98322070799986,390.0321227919999,5,051226kg,001,2026-05-12_10h14.19.149,priming,,2026.1.3,59.997389993531314,2026-05-12 10h14.19.485922 -0700,
GR_Congruent_GreenCue_GreenProbe_Top,GreenGaborBoth.png,RedGaborBoth.png,GreenGaborDisappearTop.png,RedGaborBoth.png,Green.mp3,green,top,4,4,0,,,,0,4,4,2,390.047913292,,,,,,,,,,,,,,,,top,,,,,,,,390.0322270419997,391.04822804199966,391.04839383299986,396.29793733299994,396.30568975000006,397.5479395829998,397.54957958299974,398.7153960830001,398.71608687499975,399.6654167920001,allgreen,FinalRedContrast,FinalGreenContrast,399.6663699999999,400.965320625,5,051226kg,001,2026-05-12_10h14.19.149,priming,,2026.1.3,59.997389993531314,2026-05-12 10h14.19.485922 -0700,
GR_Incongruent_GreenCue_RedProbe_Bottom,GreenGaborBoth.png,RedGaborBoth.png,GreenGaborBoth.png,RedGaborDisappearBottom.png,Green.mp3,green,bottom,5,5,0,,,,0,5,5,15,400.9811492919998,,,,,,,,,,,,,,,,bottom,,,,,,,,400.9654533329999,401.84819979199983,401.848365542,407.0979366669999,407.1060737499997,408.3481376669997,408.34985474999985,410.165043125,410.1664529999998,411.63207291699973,mostlygreen,FinalRedContrast,FinalGreenContrast,411.633255792,412.8487923329999,5,051226kg,001,2026-05-12_10h14.19.149,priming,,2026.1.3,59.997389993531314,2026-05-12 10h14.19.485922 -0700,
RR_non_riv_catch_RedCue_RedProbe_Bottom,Blank.png,RedGaborBoth.png,Blank.png,RedGaborDisappearBottom.png,Red.mp3,red,bottom,6,6,0,,,,0,6,6,73,412.8645355419999,,,,,,,,,,,,,,,,bottom,,,,,,,,412.85048283299966,413.614917333,413.6150843329997,418.8645473329998,418.8719996249997,420.11462891699966,420.1166264999997,421.14827779200004,421.14975908299994,422.96542929199995,allred,FinalRedContrast,FinalGreenContrast,422.9666487919999,425.01555874999985,5,051226kg,001,2026-05-12_10h14.19.149,priming,,2026.1.3,59.997389993531314,2026-05-12 10h14.19.485922 -0700,
GR_Incongruent_RedCue_GreenProbe_Top,GreenGaborBoth.png,RedGaborBoth.png,GreenGaborDisappearTop.png,RedGaborBoth.png,Red.mp3,red,top,7,7,0,,,,0,7,7,4,425.03140916699977,,,,,,,,,,,,,,,,top,,,,,,,,425.0156550419997,426.04835729199976,426.04852299999993,431.29807620799966,431.3044531249998,432.5480349579998,432.54957745799993,433.2485092080001,433.249783667,434.1156139169998,allgreen,FinalRedContrast,FinalGreenContrast,434.11664112499966,435.2156647500001,5,051226kg,001,2026-05-12_10h14.19.149,priming,,2026.1.3,59.997389993531314,2026-05-12 10h14.19.485922 -0700,
GR_Congruent_RedCue_RedProbe_Bottom,GreenGaborBoth.png,RedGaborBoth.png,GreenGaborBoth.png,RedGaborDisappearBottom.png,Red.mp3,red,bottom,8,8,0,,,,0,8,8,65,435.23128641699986,,,,,,,,,,,,,,,,bottom,,,,,,,,435.21580704200005,435.8650057499999,435.8651668749999,441.1149114579998,441.12136062499985,442.3646892500001,442.36642329200004,443.1151209169998,443.11657524999964,445.5988831669997,allgreen,FinalRedContrast,FinalGreenContrast,445.5993948329997,446.71556737499986,5,051226kg,001,2026-05-12_10h14.19.149,priming,,2026.1.3,59.997389993531314,2026-05-12 10h14.19.485922 -0700,
GR_Incongruent_RedCue_GreenProbe_Top,GreenGaborBoth.png,RedGaborBoth.png,GreenGaborDisappearTop.png,RedGaborBoth.png,Red.mp3,red,top,9,9,0,,,,0,9,9,44,446.7313557499997,,,,,,,,,,,,,,,,top,,,,,,,,446.71566600000006,447.6150349169998,447.615200833,452.86478287499995,452.8713215419998,454.1147666249999,454.11658124999985,456.43180620799967,456.43345862499973,459.4822979579999,evensplit,FinalRedContrast,FinalGreenContrast,459.4834042499997,460.6822163329998,5,051226kg,001,2026-05-12_10h14.19.149,priming,,2026.1.3,59.997389993531314,2026-05-12 10h14.19.485922 -0700,
GR_Incongruent_RedCue_GreenProbe_Bottom,GreenGaborBoth.png,RedGaborBoth.png,GreenGaborDisappearBottom.png,RedGaborBoth.png,Red.mp3,red,bottom,10,10,0,,,,0,10,10,61,460.6980333329998,,,,,,,,,,,,,,,,bottom,,,,,,,,460.6823146249999,473.6319085,473.6320717079998,478.88146912499997,478.889062833,480.1315772079997,480.13306858299984,481.5819670000001,481.5835189999998,482.2323208329999,allgreen,FinalRedContrast,FinalGreenContrast,482.233401083,483.0657396249999,5,051226kg,001,2026-05-12_10h14.19.149,priming,,2026.1.3,59.997389993531314,2026-05-12 10h14.19.485922 -0700,
GR_Incongruent_RedCue_GreenProbe_Top,GreenGaborBoth.png,RedGaborBoth.png,GreenGaborDisappearTop.png,RedGaborBoth.png,Red.mp3,red,top,11,11,0,,,,0,11,11,36,483.081381042,,,,,,,,,,,,,,,,top,,,,,,,,483.06585670799996,483.7652029579999,483.7653903749997,489.01490795799964,489.0214269999997,490.2648845419999,490.26646674999984,491.24858341699974,491.24969699999974,492.24904012499974,allgreen,FinalRedContrast,FinalGreenContrast,492.25019595799995,492.8489707919998,5,051226kg,001,2026-05-12_10h14.19.149,priming,,2026.1.3,59.997389993531314,2026-05-12 10h14.19.485922 -0700,
GR_Congruent_RedCue_RedProbe_Top,GreenGaborBoth.png,RedGaborBoth.png,GreenGaborBoth.png,RedGaborDisappearTop.png,Red.mp3,red,top,12,12,0,,,,0,12,12,48,492.86481562499966,,,,,,,,,,,,,,,,top,,,,,,,,492.8490751669997,493.48178074999987,493.481942375,498.7315081249999,498.738068958,499.98169341699986,499.9831664579997,501.0654460420001,501.06670470799963,502.34904262500004,mostlyred,FinalRedContrast,FinalGreenContrast,502.3501541249998,503.1158302919998,5,051226kg,001,2026-05-12_10h14.19.149,priming,,2026.1.3,59.997389993531314,2026-05-12 10h14.19.485922 -0700,
GG_non_riv_catch_GreenCue_GreenProbe_Bottom,GreenGaborBoth.png,Blank.png,GreenGaborDisappearBottom.png,Blank.png,Green.mp3,green,bottom,13,13,0,,,,0,13,13,79,503.1316299169998,,,,,,,,,,,,,,,,bottom,,,,,,,,503.1177315,504.4153525419997,504.4155169579999,509.66499991699993,509.6704937919999,510.9150387499999,510.91675725000005,512.2154436669998,512.2166910000001,513.2995623749998,allgreen,FinalRedContrast,FinalGreenContrast,513.2998164579999,514.1825892919996,5,051226kg,001,2026-05-12_10h14.19.149,priming,,2026.1.3,59.997389993531314,2026-05-12 10h14.19.485922 -0700,
GR_Congruent_GreenCue_GreenProbe_Bottom,GreenGaborBoth.png,RedGaborBoth.png,GreenGaborDisappearBottom.png,RedGaborBoth.png,Green.mp3,green,bottom,14,14,0,,,,0,14,14,11,514.198169667,,,,,,,,,,,,,,,,bottom,,,,,,,,514.182696417,515.0319077499998,515.0320728329998,520.2816601249997,520.2881224579996,521.531800667,521.533313208,523.5487471249999,523.5503010419998,524.4992979579997,evensplit,FinalRedContrast,FinalGreenContrast,524.5002460420001,525.2827284169998,5,051226kg,001,2026-05-12_10h14.19.149,priming,,2026.1.3,59.997389993531314,2026-05-12 10h14.19.485922 -0700,
RR_non_riv_catch_RedCue_RedProbe_Top,Blank.png,RedGaborBoth.png,Blank.png,RedGaborDisappearTop.png,Red.mp3,red,top,15,15,0,,,,0,15,15,72,525.2982467080001,,,,,,,,,,,,,,,,top,,,,,,,,525.2844906249998,525.8994177499999,525.899595542,531.14836625,531.1538344999999,532.3983450420001,532.3997896249998,533.6824850419998,533.6834129579997,534.6325279170001,allred,FinalRedContrast,FinalGreenContrast,534.6335734169998,536.3158046670001,5,051226kg,001,2026-05-12_10h14.19.149,priming,,2026.1.3,59.997389993531314,2026-05-12 10h14.19.485922 -0700,
GR_Congruent_RedCue_RedProbe_Top,GreenGaborBoth.png,RedGaborBoth.png,GreenGaborBoth.png,RedGaborDisappearTop.png,Red.mp3,red,top,16,16,0,,,,0,16,16,64,536.3315820829998,,,,,,,,,,,,,,,,top,,,,,,,,536.3159,537.4820882919998,537.4822547919998,542.7318572919999,542.7382693330001,543.981853625,543.9833458749999,549.1990592079997,549.2003663329997,549.782657917,allred,FinalRedContrast,FinalGreenContrast,549.7837669579999,550.6996891250001,5,051226kg,001,2026-05-12_10h14.19.149,priming,,2026.1.3,59.997389993531314,2026-05-12 10h14.19.485922 -0700,
GR_Congruent_GreenCue_GreenProbe_Top,GreenGaborBoth.png,RedGaborBoth.png,GreenGaborDisappearTop.png,RedGaborBoth.png,Green.mp3,green,top,17,17,0,,,,0,17,17,18,550.7151015,,,,,,,,,,,,,,,,top,,,,,,,,550.7014671249999,551.53208425,551.53225075,556.7818381669999,556.7882446670001,558.0318387499997,558.033279583,559.915551,559.916758625,561.5325935829997,mostlyred,FinalRedContrast,FinalGreenContrast,561.5335797499997,563.3159139169998,5,051226kg,001,2026-05-12_10h14.19.149,priming,,2026.1.3,59.997389993531314,2026-05-12 10h14.19.485922 -0700,
GR_Congruent_GreenCue_GreenProbe_Top,GreenGaborBoth.png,RedGaborBoth.png,GreenGaborDisappearTop.png,RedGaborBoth.png,Green.mp3,green,top,18,18,0,,,,0,18,18,26,563.3316932919997,,,,,,,,,,,,,,,,top,,,,,,,,563.3160102080001,563.9488124579998,563.9489793329999,569.198529792,569.204882167,570.4485097500001,570.4503089579998,571.5156568749999,571.5167394579998,576.1161620419998,allgreen,FinalRedContrast,FinalGreenContrast,576.1167770419997,576.9331991669997,5,051226kg,001,2026-05-12_10h14.19.149,priming,,2026.1.3,59.997389993531314,2026-05-12 10h14.19.485922 -0700,
GR_Incongruent_GreenCue_RedProbe_Bottom,GreenGaborBoth.png,RedGaborBoth.png,GreenGaborBoth.png,RedGaborDisappearBottom.png,Green.mp3,green,bottom,19,19,0,,,,0,19,19,31,576.948559083,,,,,,,,,,,,,,,,bottom,,,,,,,,576.933297042,577.74371225,577.7438768749998,582.981932875,582.988288125,584.2320401249999,584.2335678750001,585.5323776249998,585.5333168749999,586.6660957919999,evensplit,FinalRedContrast,FinalGreenContrast,586.6669305,587.1827183749997,5,051226kg,001,2026-05-12_10h14.19.149,priming,,2026.1.3,59.997389993531314,2026-05-12 10h14.19.485922 -0700,
GR_Congruent_GreenCue_GreenProbe_Bottom,GreenGaborBoth.png,RedGaborBoth.png,GreenGaborDisappearBottom.png,RedGaborBoth.png,Green.mp3,green,bottom,20,20,0,,,,0,20,20,43,587.198558,,,,,,,,,,,,,,,,bottom,,,,,,,,587.1828209169998,587.815595,587.8157615,593.065265667,593.0716402079997,594.3153942499998,594.3170459579997,595.5823789169999,595.583863333,596.9327687919999,allgreen,FinalRedContrast,FinalGreenContrast,596.9338062919996,597.61604975,5,051226kg,001,2026-05-12_10h14.19.149,priming,,2026.1.3,59.997389993531314,2026-05-12 10h14.19.485922 -0700,
GR_Incongruent_RedCue_GreenProbe_Top,GreenGaborBoth.png,RedGaborBoth.png,GreenGaborDisappearTop.png,RedGaborBoth.png,Red.mp3,red,top,21,21,0,,,,0,21,21,28,597.631858667,,,,,,,,,,,,,,,,top,,,,,,,,597.6177096249999,598.2489231249997,598.2490889169999,603.4985884170001,603.505065625,604.7486086669996,604.7502939579999,608.4657044169999,608.4672754999997,610.8494328749998,mostlygreen,FinalRedContrast,FinalGreenContrast,610.850610167,611.499592833,5,051226kg,001,2026-05-12_10h14.19.149,priming,,2026.1.3,59.997389993531314,2026-05-12 10h14.19.485922 -0700,
GR_Congruent_RedCue_RedProbe_Bottom,GreenGaborBoth.png,RedGaborBoth.png,GreenGaborBoth.png,RedGaborDisappearBottom.png,Red.mp3,red,bottom,22,22,0,,,,0,22,22,25,611.5152724579998,,,,,,,,,,,,,,,,bottom,,,,,,,,611.4997119579998,612.5490557079997,612.549235083,617.798850958,617.8051730829998,619.0487547919997,619.0504156249999,620.5658625419996,620.567385417,622.0161645419998,mostlyred,FinalRedContrast,FinalGreenContrast,622.017296042,623.049565625,5,051226kg,001,2026-05-12_10h14.19.149,priming,,2026.1.3,59.997389993531314,2026-05-12 10h14.19.485922 -0700,
GR_Incongruent_GreenCue_RedProbe_Bottom,GreenGaborBoth.png,RedGaborBoth.png,GreenGaborBoth.png,RedGaborDisappearBottom.png,Green.mp3,green,bottom,23,23,0,,,,0,23,23,23,623.065347792,,,,,,,,,,,,,,,,bottom,,,,,,,,623.0514570830001,623.7990273749997,623.7991914579998,629.0486181669999,629.0549650419998,630.2987594169999,630.2999906669997,631.449339542,631.450827917,632.4998635419997,allgreen,FinalRedContrast,FinalGreenContrast,632.5001983329998,633.4328687499997,5,051226kg,001,2026-05-12_10h14.19.149,priming,,2026.1.3,59.997389993531314,2026-05-12 10h14.19.485922 -0700,
GR_Incongruent_GreenCue_RedProbe_Top,GreenGaborBoth.png,RedGaborBoth.png,GreenGaborBoth.png,RedGaborDisappearTop.png,Green.mp3,green,top,24,24,0,,,,0,24,24,46,633.448661208,,,,,,,,,,,,,,,,bottom,,,,,,,,633.432963708,633.9324764579997,633.9326711670001,639.1819586669999,639.1883698329998,640.4320483749998,640.4338079999998,641.7825713749999,641.783999792,642.6829177079999,allgreen,FinalRedContrast,FinalGreenContrast,642.6839238749999,643.4833105419998,5,051226kg,001,2026-05-12_10h14.19.149,priming,,2026.1.3,59.997389993531314,2026-05-12 10h14.19.485922 -0700,
GR_Congruent_GreenCue_GreenProbe_Top,GreenGaborBoth.png,RedGaborBoth.png,GreenGaborDisappearTop.png,RedGaborBoth.png,Green.mp3,green,top,25,25,0,,,,0,25,25,58,643.498722583,,,,,,,,,,,,,,,,top,,,,,,,,643.4834068329997,644.015725917,644.015896375,649.2655185419999,649.27191425,650.5154951249997,650.5169879579998,651.4326760419999,651.4341786669997,653.1662999999999,allgreen,FinalRedContrast,FinalGreenContrast,653.1666552500001,654.0329511249997,5,051226kg,001,2026-05-12_10h14.19.149,priming,,2026.1.3,59.997389993531314,2026-05-12 10h14.19.485922 -0700,
GG_non_riv_catch_RedCue_GreenProbe_Top,GreenGaborBoth.png,Blank.png,GreenGaborDisappearTop.png,Blank.png,Red.mp3,red,top,26,26,0,,,,0,26,26,76,654.048697833,,,,,,,,,,,,,,,,top,,,,,,,,654.0345753749998,654.6157303749997,654.6158950419999,659.8655215829999,659.8709256249999,661.1155320419998,661.116933667,661.7826252499999,661.78404525,667.7163861249996,allgreen,FinalRedContrast,FinalGreenContrast,667.7172650829998,669.3163602079999,5,051226kg,001,2026-05-12_10h14.19.149,priming,,2026.1.3,59.997389993531314,2026-05-12 10h14.19.485922 -0700,
GR_Incongruent_RedCue_GreenProbe_Top,GreenGaborBoth.png,RedGaborBoth.png,GreenGaborDisappearTop.png,RedGaborBoth.png,Red.mp3,red,top,27,27,0,,,,0,27,27,60,669.3320690420001,,,,,,,,,,,,,,,,top,,,,,,,,669.3164756249998,671.3158746669997,671.3160427499997,676.5654946249997,676.571788792,677.8155243329998,677.8173433329998,678.4992710829997,678.500680958,681.9330460829997,mostlyred,FinalRedContrast,FinalGreenContrast,681.9341453749998,683.3829767919997,5,051226kg,001,2026-05-12_10h14.19.149,priming,,2026.1.3,59.997389993531314,2026-05-12 10h14.19.485922 -0700,
GR_Congruent_GreenCue_GreenProbe_Top,GreenGaborBoth.png,RedGaborBoth.png,GreenGaborDisappearTop.png,RedGaborBoth.png,Green.mp3,green,top,28,28,0,,,,0,28,28,10,683.39884575,,,,,,,,,,,,,,,,top,,,,,,,,683.384858208,685.4992969999998,685.499496167,690.7489639579999,690.7553444999999,691.9989932919998,692.000252458,692.9160982499998,692.9174549579998,695.9164867079999,allgreen,FinalRedContrast,FinalGreenContrast,695.9174209579996,696.6499999999996,5,051226kg,001,2026-05-12_10h14.19.149,priming,,2026.1.3,59.997389993531314,2026-05-12 10h14.19.485922 -0700,
GR_Congruent_GreenCue_GreenProbe_Bottom,GreenGaborBoth.png,RedGaborBoth.png,GreenGaborDisappearBottom.png,RedGaborBoth.png,Green.mp3,green,bottom,29,29,0,,,,0,29,29,3,696.665629958,,,,,,,,,,,,,,,,bottom,,,,,,,,696.6500996249997,697.518805792,697.5189754999997,702.765671917,702.7720032499997,704.0156604999997,704.0169530829999,705.1827334579998,705.1836933750001,706.133169708,allgreen,FinalRedContrast,FinalGreenContrast,706.1337952919998,706.6668141249997,5,051226kg,001,2026-05-12_10h14.19.149,priming,,2026.1.3,59.997389993531314,2026-05-12 10h14.19.485922 -0700,
GR_Congruent_RedCue_RedProbe_Top,GreenGaborBoth.png,RedGaborBoth.png,GreenGaborBoth.png,RedGaborDisappearTop.png,Red.mp3,red,top,30,30,0,,,,0,30,30,40,706.6822702499999,,,,,,,,,,,,,,,,top,,,,,,,,706.6685076670001,707.1159552499998,707.116124958,712.3657295829998,712.3720708329997,713.6157535419998,713.6174555419998,715.0494428749998,715.0504551249996,716.349898167,allred,FinalRedContrast,FinalGreenContrast,716.350423458,717.7108399169997,5,051226kg,001,2026-05-12_10h14.19.149,priming,,2026.1.3,59.997389993531314,2026-05-12 10h14.19.485922 -0700,
RR_non_riv_catch_GreenCue_RedProbe_Top,Blank.png,RedGaborBoth.png,Blank.png,RedGaborDisappearTop.png,Green.mp3,green,top,31,31,0,,,,0,31,31,74,717.7163298749997,,,,,,,,,,,,,,,,top,,,,,,,,717.7126558329996,718.2565602499999,718.2567327080001,723.4991300829997,723.50450275,724.7491198749999,724.7504585419997,725.6162346249998,725.6171792499999,726.550075958,allred,FinalRedContrast,FinalGreenContrast,726.5507562079997,726.9667152079996,5,051226kg,001,2026-05-12_10h14.19.149,priming,,2026.1.3,59.997389993531314,2026-05-12 10h14.19.485922 -0700,
GR_Congruent_GreenCue_GreenProbe_Top,GreenGaborBoth.png,RedGaborBoth.png,GreenGaborDisappearTop.png,RedGaborBoth.png,Green.mp3,green,top,32,32,0,,,,0,32,32,50,726.9824131249998,,,,,,,,,,,,,,,,top,,,,,,,,726.9668219169998,727.4994727499998,727.499634708,732.7490774999997,732.7556184999999,733.999129625,734.0007188750001,734.5995397500001,734.601069583,735.9166130829999,allgreen,FinalRedContrast,FinalGreenContrast,735.9171151669998,736.5832674999997,5,051226kg,001,2026-05-12_10h14.19.149,priming,,2026.1.3,59.997389993531314,2026-05-12 10h14.19.485922 -0700,
GR_Incongruent_GreenCue_RedProbe_Bottom,GreenGaborBoth.png,RedGaborBoth.png,GreenGaborBoth.png,RedGaborDisappearBottom.png,Green.mp3,green,bottom,33,33,0,,,,0,33,33,39,736.5990537499997,,,,,,,,,,,,,,,,bottom,,,,,,,,736.5833775419997,736.9827351249996,736.9829016250001,742.2324604169999,742.2388825829998,743.4823857920001,743.484405958,744.383013917,744.3845504579999,746.3665539579997,allgreen,FinalRedContrast,FinalGreenContrast,746.3677666670001,746.959296125,5,051226kg,001,2026-05-12_10h14.19.149,priming,,2026.1.3,59.997389993531314,2026-05-12 10h14.19.485922 -0700,
GR_Incongruent_GreenCue_RedProbe_Top,GreenGaborBoth.png,RedGaborBoth.png,GreenGaborBoth.png,RedGaborDisappearTop.png,Green.mp3,green,top,34,34,0,,,,0,34,34,6,746.9655965419997,,,,,,,,,,,,,,,,top,,,,,,,,746.9593935419998,747.3663442919997,747.3665281670001,752.6158384999999,752.6221999169998,753.8657364169999,753.867563792,755.916167375,755.9179022919998,757.5333799999999,evensplit,FinalRedContrast,FinalGreenContrast,757.5337617079999,758.2670355,5,051226kg,001,2026-05-12_10h14.19.149,priming,,2026.1.3,59.997389993531314,2026-05-12 10h14.19.485922 -0700,
GR_Congruent_GreenCue_GreenProbe_Bottom,GreenGaborBoth.png,RedGaborBoth.png,GreenGaborDisappearBottom.png,RedGaborBoth.png,Green.mp3,green,bottom,35,35,0,,,,0,35,35,19,758.282402667,,,,,,,,,,,,,,,,bottom,,,,,,,,758.2671353749997,761.8161494999999,761.8163155419998,767.0658935419997,767.072308667,768.3158261670001,768.3174765419999,769.0663454169999,769.067791167,770.5000245419997,allgreen,FinalRedContrast,FinalGreenContrast,770.5011477499997,771.1501174999999,5,051226kg,001,2026-05-12_10h14.19.149,priming,,2026.1.3,59.997389993531314,2026-05-12 10h14.19.485922 -0700,
GR_Congruent_RedCue_RedProbe_Bottom,GreenGaborBoth.png,RedGaborBoth.png,GreenGaborBoth.png,RedGaborDisappearBottom.png,Red.mp3,red,bottom,36,36,0,,,,0,36,36,17,771.1658899999998,,,,,,,,,,,,,,,,bottom,,,,,,,,771.1517949169997,771.5995036249997,771.5996678329998,776.8492470419997,776.8556456249999,778.099256125,778.1008339999998,778.9831536669999,778.9844292919997,780.1834604169999,mostlyred,FinalRedContrast,FinalGreenContrast,780.1843505419997,781.2000614169997,5,051226kg,001,2026-05-12_10h14.19.149,priming,,2026.1.3,59.997389993531314,2026-05-12 10h14.19.485922 -0700,
GR_Incongruent_RedCue_GreenProbe_Top,GreenGaborBoth.png,RedGaborBoth.png,GreenGaborDisappearTop.png,RedGaborBoth.png,Red.mp3,red,top,37,37,0,,,,0,37,37,68,781.2158653749998,,,,,,,,,,,,,,,,top,,,,,,,,781.2001584169998,787.4328286249997,787.43299325,792.6825704579996,792.6901612920001,793.932571583,793.9342564999997,797.2831727919997,797.2845471249998,799.5169114579999,mostlygreen,FinalRedContrast,FinalGreenContrast,799.5173589999999,800.0502032499999,5,051226kg,001,2026-05-12_10h14.19.149,priming,,2026.1.3,59.997389993531314,2026-05-12 10h14.19.485922 -0700,
GR_Incongruent_RedCue_GreenProbe_Top,GreenGaborBoth.png,RedGaborBoth.png,GreenGaborDisappearTop.png,RedGaborBoth.png,Red.mp3,red,top,38,38,0,,,,0,38,38,52,800.0659194579998,,,,,,,,,,,,,,,,top,,,,,,,,800.0503022079997,800.7164173329998,800.716583167,805.9659739169997,805.97225475,807.2160372919998,807.2179097499998,810.0832083749997,810.084468042,813.2500997079997,evensplit,FinalRedContrast,FinalGreenContrast,813.2513048329997,814.9835483749998,5,051226kg,001,2026-05-12_10h14.19.149,priming,,2026.1.3,59.997389993531314,2026-05-12 10h14.19.485922 -0700,
GR_Incongruent_GreenCue_RedProbe_Bottom,GreenGaborBoth.png,RedGaborBoth.png,GreenGaborBoth.png,RedGaborDisappearBottom.png,Green.mp3,green,bottom,39,39,0,,,,0,39,39,55,814.9993142919998,,,,,,,,,,,,,,,,bottom,,,,,,,,814.9853603329998,815.3496660420001,815.3498289169997,820.599327375,820.6057430000001,821.8494632079996,821.851229542,822.9665059169997,822.9674460419997,824.8335361669997,mostlyred,FinalRedContrast,FinalGreenContrast,824.8346798329999,825.5003254579997,5,051226kg,001,2026-05-12_10h14.19.149,priming,,2026.1.3,59.997389993531314,2026-05-12 10h14.19.485922 -0700,
GR_Incongruent_RedCue_GreenProbe_Bottom,GreenGaborBoth.png,RedGaborBoth.png,GreenGaborDisappearBottom.png,RedGaborBoth.png,Red.mp3,red,bottom,40,40,0,,,,0,40,40,45,825.516081875,,,,,,,,,,,,,,,,bottom,,,,,,,,825.502037583,825.9997187499998,825.9998849579997,831.249344583,831.2556703749997,832.4995564579999,832.501089542,833.5499582919997,833.5512953329999,834.9669485,mostlyred,FinalRedContrast,FinalGreenContrast,834.9683311250001,836.2003613329998,5,051226kg,001,2026-05-12_10h14.19.149,priming,,2026.1.3,59.997389993531314,2026-05-12 10h14.19.485922 -0700,
GR_Congruent_GreenCue_GreenProbe_Bottom,GreenGaborBoth.png,RedGaborBoth.png,GreenGaborDisappearBottom.png,RedGaborBoth.png,Green.mp3,green,bottom,41,41,0,,,,0,41,41,67,836.2160820419999,,,,,,,,,,,,,,,,bottom,,,,,,,,836.202175208,836.4997815419997,836.499943708,841.7495855829998,841.7558336249999,842.9994970829998,843.0006520419997,844.6332306249997,844.6348911249997,845.833594792,mostlygreen,FinalRedContrast,FinalGreenContrast,845.8346313749998,846.3836379579998,5,051226kg,001,2026-05-12_10h14.19.149,priming,,2026.1.3,59.997389993531314,2026-05-12 10h14.19.485922 -0700,
GR_Incongruent_RedCue_GreenProbe_Bottom,GreenGaborBoth.png,RedGaborBoth.png,GreenGaborDisappearBottom.png,RedGaborBoth.png,Red.mp3,red,bottom,42,42,0,,,,0,42,42,5,846.399399292,,,,,,,,,,,,,,,,bottom,,,,,,,,846.3854044999998,846.8831500419997,846.883317417,852.1328491669997,852.13930725,853.3828722079998,853.3841416249998,854.5166021249997,854.5181514169999,855.716994292,allgreen,FinalRedContrast,FinalGreenContrast,855.718165542,856.250393542,5,051226kg,001,2026-05-12_10h14.19.149,priming,,2026.1.3,59.997389993531314,2026-05-12 10h14.19.485922 -0700,
GR_Incongruent_RedCue_GreenProbe_Bottom,GreenGaborBoth.png,RedGaborBoth.png,GreenGaborDisappearBottom.png,RedGaborBoth.png,Red.mp3,red,bottom,43,43,0,,,,0,43,43,37,856.266171667,,,,,,,,,,,,,,,,bottom,,,,,,,,856.250494292,856.6668059579997,856.6669714999998,861.9162255419997,861.9225281669997,863.1661624999997,863.1679017920001,864.1832594580001,864.1849500829999,866.8507425419998,mostlygreen,FinalRedContrast,FinalGreenContrast,866.8512886670001,867.5838391249999,5,051226kg,001,2026-05-12_10h14.19.149,priming,,2026.1.3,59.997389993531314,2026-05-12 10h14.19.485922 -0700,
GG_non_riv_catch_RedCue_GreenProbe_Bottom,GreenGaborBoth.png,Blank.png,GreenGaborDisappearBottom.png,Blank.png,Red.mp3,red,bottom,44,44,0,,,,0,44,44,77,867.5994915829997,,,,,,,,,,,,,,,,bottom,,,,,,,,867.5839464169999,892.566758167,892.5669312079999,897.8162420419999,897.8224364170001,899.0662243329998,899.0681024579999,899.9333154999999,899.9349365829999,901.0504876669997,allgreen,FinalRedContrast,FinalGreenContrast,901.0511779169997,901.6514784999999,5,051226kg,001,2026-05-12_10h14.19.149,priming,,2026.1.3,59.997389993531314,2026-05-12 10h14.19.485922 -0700,
GR_Congruent_RedCue_RedProbe_Bottom,GreenGaborBoth.png,RedGaborBoth.png,GreenGaborBoth.png,RedGaborDisappearBottom.png,Red.mp3,red,bottom,45,45,0,,,,0,45,45,9,901.6662383329999,,,,,,,,,,,,,,,,bottom,,,,,,,,901.6515826669997,902.1668501249997,902.1670277499998,907.4163977919998,907.4236980420001,908.6664892499998,908.6680819579997,909.2836435419999,909.2844351670001,909.9506351249997,mostlyred,FinalRedContrast,FinalGreenContrast,909.9515470419997,911.067280833,5,051226kg,001,2026-05-12_10h14.19.149,priming,,2026.1.3,59.997389993531314,2026-05-12 10h14.19.485922 -0700,
GR_Congruent_GreenCue_GreenProbe_Top,GreenGaborBoth.png,RedGaborBoth.png,GreenGaborDisappearTop.png,RedGaborBoth.png,Green.mp3,green,top,46,46,0,,,,0,46,46,66,911.0830432079997,,,,,,,,,,,,,,,,top,,,,,,,,911.0690949579998,911.650084375,911.6502517499998,916.899647875,916.9059753329998,918.14978875,918.151397958,918.7835003329997,918.7848964169998,919.434249417,mostlygreen,FinalRedContrast,FinalGreenContrast,919.4347897499997,921.0245534999999,5,051226kg,001,2026-05-12_10h14.19.149,priming,,2026.1.3,59.997389993531314,2026-05-12 10h14.19.485922 -0700,
GR_Incongruent_GreenCue_RedProbe_Top,GreenGaborBoth.png,RedGaborBoth.png,GreenGaborBoth.png,RedGaborDisappearTop.png,Green.mp3,green,top,47,47,0,,,,0,47,47,22,921.0329408749999,,,,,,,,,,,,,,,,top,,,,,,,,921.0246520420001,921.766711875,921.7668733749997,927.016437833,927.0238534169998,928.2665582499999,928.2680982499996,929.133547125,929.134586833,930.667333375,mostlyred,FinalRedContrast,FinalGreenContrast,930.6682059999998,932.2172029579997,5,051226kg,001,2026-05-12_10h14.19.149,priming,,2026.1.3,59.997389993531314,2026-05-12 10h14.19.485922 -0700,
GR_Incongruent_RedCue_GreenProbe_Bottom,GreenGaborBoth.png,RedGaborBoth.png,GreenGaborDisappearBottom.png,RedGaborBoth.png,Red.mp3,red,bottom,48,48,0,,,,0,48,48,13,932.2330133749997,,,,,,,,,,,,,,,,bottom,,,,,,,,932.2189839580001,987.0003497499997,987.0005164579998,992.2498889579997,992.256285333,993.500004042,993.5017189579999,994.3004055829997,994.3011282499997,995.4007517499999,mostlyred,FinalRedContrast,FinalGreenContrast,995.4018095419997,995.9008224579998,5,051226kg,001,2026-05-12_10h14.19.149,priming,,2026.1.3,59.997389993531314,2026-05-12 10h14.19.485922 -0700,
GR_Incongruent_RedCue_GreenProbe_Bottom,GreenGaborBoth.png,RedGaborBoth.png,GreenGaborDisappearBottom.png,RedGaborBoth.png,Red.mp3,red,bottom,49,49,0,,,,0,49,49,53,995.916559583,,,,,,,,,,,,,,,,bottom,,,,,,,,995.900919917,996.5836999579997,996.5838609580001,1001.8332860830001,1001.839695958,1003.083386708,1003.0843567080001,1003.68378325,1003.685291542,1004.800827,mostlygreen,FinalRedContrast,FinalGreenContrast,1004.8020495420001,1005.3342380419999,5,051226kg,001,2026-05-12_10h14.19.149,priming,,2026.1.3,59.997389993531314,2026-05-12 10h14.19.485922 -0700,
GR_Congruent_RedCue_RedProbe_Bottom,GreenGaborBoth.png,RedGaborBoth.png,GreenGaborBoth.png,RedGaborDisappearBottom.png,Red.mp3,red,bottom,50,50,0,,,,0,50,50,49,1005.350093,,,,,,,,,,,,,,,,bottom,,,,,,,,1005.334372708,1005.8505545829998,1005.8507433749996,1011.099953333,1011.1063720829998,1012.3500528330001,1012.3516569579997,1013.3004500829998,1013.3011229999997,1015.6175222919996,mostlyred,FinalRedContrast,FinalGreenContrast,1015.6183357919999,1016.0676578329999,5,051226kg,001,2026-05-12_10h14.19.149,priming,,2026.1.3,59.997389993531314,2026-05-12 10h14.19.485922 -0700,
GR_Incongruent_GreenCue_RedProbe_Top,GreenGaborBoth.png,RedGaborBoth.png,GreenGaborBoth.png,RedGaborDisappearTop.png,Green.mp3,green,top,51,51,0,,,,0,51,51,14,1016.0833602079997,,,,,,,,,,,,,,,,top,,,,,,,,1016.0694524579999,1017.0838090829998,1017.0839796669998,1022.3335206669999,1022.339892167,1023.5835198330001,1023.585064375,1025.400511542,1025.4018794169997,1027.4343100829997,mostlyred,FinalRedContrast,FinalGreenContrast,1027.4352410829997,1028.4347821249999,4,051226kg,001,2026-05-12_10h14.19.149,priming,,2026.1.3,59.997389993531314,2026-05-12 10h14.19.485922 -0700,
GR_Incongruent_GreenCue_RedProbe_Bottom,GreenGaborBoth.png,RedGaborBoth.png,GreenGaborBoth.png,RedGaborDisappearBottom.png,Green.mp3,green,bottom,52,52,0,,,,0,52,52,7,1028.450128208,,,,,,,,,,,,,,,,bottom,,,,,,,,1028.4348771249997,1030.5004205,1030.5005859579996,1035.7501333749997,1035.7564870419997,1037.000177167,1037.0019279579997,1038.1172229999997,1038.1188482919997,1039.4177196249998,mostlygreen,FinalRedContrast,FinalGreenContrast,1039.418892875,1040.217874208,5,051226kg,001,2026-05-12_10h14.19.149,priming,,2026.1.3,59.997389993531314,2026-05-12 10h14.19.485922 -0700,
GR_Incongruent_GreenCue_RedProbe_Bottom,GreenGaborBoth.png,RedGaborBoth.png,GreenGaborBoth.png,RedGaborDisappearBottom.png,Green.mp3,green,bottom,53,53,0,,,,0,53,53,63,1040.2334449169998,,,,,,,,,,,,,,,,bottom,,,,,,,,1040.217980042,1040.5839122499997,1040.5840804999998,1045.8334881249998,1045.8400740419997,1047.08364075,1047.0852785829998,1048.317269833,1048.318433167,1052.1509577499996,mostlygreen,FinalRedContrast,FinalGreenContrast,1052.1520045419998,1052.9678207499996,5,051226kg,001,2026-05-12_10h14.19.149,priming,,2026.1.3,59.997389993531314,2026-05-12 10h14.19.485922 -0700,
GR_Congruent_GreenCue_GreenProbe_Bottom,GreenGaborBoth.png,RedGaborBoth.png,GreenGaborDisappearBottom.png,RedGaborBoth.png,Green.mp3,green,bottom,54,54,0,,,,0,54,54,27,1052.9835927079998,,,,,,,,,,,,,,,,bottom,,,,,,,,1052.9679269579997,1053.417223292,1053.4173891249998,1058.6669148749997,1058.674545375,1059.9169752499997,1059.9183491669996,1061.884085917,1061.8853252499998,1063.0181164169999,mostlygreen,FinalRedContrast,FinalGreenContrast,1063.018673125,1063.5844137919999,5,051226kg,001,2026-05-12_10h14.19.149,priming,,2026.1.3,59.997389993531314,2026-05-12 10h14.19.485922 -0700,
GR_Congruent_RedCue_RedProbe_Top,GreenGaborBoth.png,RedGaborBoth.png,GreenGaborBoth.png,RedGaborDisappearTop.png,Red.mp3,red,top,55,55,0,,,,0,55,55,16,1063.6002132079998,,,,,,,,,,,,,,,,top,,,,,,,,1063.5862108749998,1064.0171487079997,1064.017314708,1069.266918792,1069.274464958,1070.5168599169997,1070.5188519999997,1072.1173427919998,1072.1183340419998,1072.8678770419997,mostlyred,FinalRedContrast,FinalGreenContrast,1072.8688096669998,1073.6177874579998,5,051226kg,001,2026-05-12_10h14.19.149,priming,,2026.1.3,59.997389993531314,2026-05-12 10h14.19.485922 -0700,
GR_Incongruent_GreenCue_RedProbe_Top,GreenGaborBoth.png,RedGaborBoth.png,GreenGaborBoth.png,RedGaborDisappearTop.png,Green.mp3,green,top,56,56,0,,,,0,56,56,70,1073.6335519999998,,,,,,,,,,,,,,,,top,,,,,,,,1073.6198095,1074.017675875,1074.017865583,1079.267006,1079.2734675419997,1080.516993958,1080.5183831249997,1082.250692,1082.2521525829998,1083.801038958,mostlyred,FinalRedContrast,FinalGreenContrast,1083.8021939579999,1084.7511115829998,5,051226kg,001,2026-05-12_10h14.19.149,priming,,2026.1.3,59.997389993531314,2026-05-12 10h14.19.485922 -0700,
GR_Congruent_GreenCue_GreenProbe_Top,GreenGaborBoth.png,RedGaborBoth.png,GreenGaborDisappearTop.png,RedGaborBoth.png,Green.mp3,green,top,57,57,0,,,,0,57,57,34,1084.766846167,,,,,,,,,,,,,,,,top,,,,,,,,1084.751207375,1085.2005975829998,1085.2007598329997,1090.4504420419998,1090.4579492079997,1091.7003638749998,1091.7022647079998,1092.2508457499998,1092.2522549999999,1093.101287125,allgreen,FinalRedContrast,FinalGreenContrast,1093.1022185419997,1093.7678942499997,5,051226kg,001,2026-05-12_10h14.19.149,priming,,2026.1.3,59.997389993531314,2026-05-12 10h14.19.485922 -0700,
GR_Incongruent_GreenCue_RedProbe_Top,GreenGaborBoth.png,RedGaborBoth.png,GreenGaborBoth.png,RedGaborDisappearTop.png,Green.mp3,green,top,58,58,0,,,,0,58,58,38,1093.7836740829998,,,,,,,,,,,,,,,,top,,,,,,,,1093.7679900829999,1094.1506707079998,1094.1508360829998,1099.400364,1099.4067465829999,1100.650444333,1100.652042792,1101.517502792,1101.518909125,1102.484542583,mostlyred,FinalRedContrast,FinalGreenContrast,1102.4855403329998,1102.9345695419997,5,051226kg,001,2026-05-12_10h14.19.149,priming,,2026.1.3,59.997389993531314,2026-05-12 10h14.19.485922 -0700,
GR_Congruent_RedCue_RedProbe_Top,GreenGaborBoth.png,RedGaborBoth.png,GreenGaborBoth.png,RedGaborDisappearTop.png,Red.mp3,red,top,59,59,0,,,,0,59,59,0,1102.95035125,,,,,,,,,,,,,,,,top,,,,,,,,1102.9363385829997,1103.2840686249997,1103.284234625,1108.5337609169997,1108.5402952079999,1109.7837344169998,1109.7851639169999,1110.4675965419997,1110.468305083,1112.051290292,allred,FinalRedContrast,FinalGreenContrast,1112.051548208,1112.3511215419999,1,051226kg,001,2026-05-12_10h14.19.149,priming,,2026.1.3,59.997389993531314,2026-05-12 10h14.19.485922 -0700,
GR_Incongruent_GreenCue_RedProbe_Top,GreenGaborBoth.png,RedGaborBoth.png,GreenGaborBoth.png,RedGaborDisappearTop.png,Green.mp3,green,top,60,60,0,,,,0,60,60,62,1112.3669895829998,,,,,,,,,,,,,,,,top,,,,,,,,1112.353005375,1119.034059833,1119.0342269999996,1124.283760583,1124.2923851669998,1125.5337466249998,1125.535062333,1127.1343056669998,1127.1353047499997,1127.9680437079996,evensplit,FinalRedContrast,FinalGreenContrast,1127.969133,1129.134640708,5,051226kg,001,2026-05-12_10h14.19.149,priming,,2026.1.3,59.997389993531314,2026-05-12 10h14.19.485922 -0700,
GR_Incongruent_GreenCue_RedProbe_Top,GreenGaborBoth.png,RedGaborBoth.png,GreenGaborBoth.png,RedGaborDisappearTop.png,Green.mp3,green,top,61,61,0,,,,0,61,61,30,1129.1504567079996,,,,,,,,,,,,,,,,top,,,,,,,,1129.134781583,1131.6175511669999,1131.6177183749996,1136.8672202919997,1136.873636708,1138.1172468749996,1138.118934917,1139.250921417,1139.25206975,1140.818037,mostlygreen,FinalRedContrast,FinalGreenContrast,1140.819138708,1141.567995458,5,051226kg,001,2026-05-12_10h14.19.149,priming,,2026.1.3,59.997389993531314,2026-05-12 10h14.19.485922 -0700,
GR_Incongruent_RedCue_GreenProbe_Bottom,GreenGaborBoth.png,RedGaborBoth.png,GreenGaborDisappearBottom.png,RedGaborBoth.png,Red.mp3,red,bottom,62,62,0,,,,0,62,62,29,1141.5838127499997,,,,,,,,,,,,,,,,bottom,,,,,,,,1141.5696404999999,1142.0842350419998,1142.0844080829997,1147.33387675,1147.341298375,1148.583857917,1148.585682083,1150.2843507079997,1150.2857638329997,1151.534695208,allgreen,FinalRedContrast,FinalGreenContrast,1151.535863833,1152.9680262499996,5,051226kg,001,2026-05-12_10h14.19.149,priming,,2026.1.3,59.997389993531314,2026-05-12 10h14.19.485922 -0700,
GR_Congruent_RedCue_RedProbe_Top,GreenGaborBoth.png,RedGaborBoth.png,GreenGaborBoth.png,RedGaborDisappearTop.png,Red.mp3,red,top,63,63,0,,,,0,63,63,56,1152.983757208,,,,,,,,,,,,,,,,top,,,,,,,,1152.968123833,1153.68414425,1153.6843087919997,1158.933913583,1158.9405082919998,1160.183897333,1160.185591,1162.3176424999997,1162.3191497499997,1164.684880375,mostlyred,FinalRedContrast,FinalGreenContrast,1164.685667583,1165.251575333,5,051226kg,001,2026-05-12_10h14.19.149,priming,,2026.1.3,59.997389993531314,2026-05-12 10h14.19.485922 -0700,
GR_Incongruent_RedCue_GreenProbe_Top,GreenGaborBoth.png,RedGaborBoth.png,GreenGaborDisappearTop.png,RedGaborBoth.png,Red.mp3,red,top,64,64,0,,,,0,64,64,12,1165.2672844169997,,,,,,,,,,,,,,,,top,,,,,,,,1165.2516727499997,1165.6510269169999,1165.6511960829998,1170.900636583,1170.9081313749998,1172.1506641249998,1172.152158583,1173.3677311669999,1173.369150167,1174.918267,mostlygreen,FinalRedContrast,FinalGreenContrast,1174.9191316249999,1176.551461,5,051226kg,001,2026-05-12_10h14.19.149,priming,,2026.1.3,59.997389993531314,2026-05-12 10h14.19.485922 -0700,
GR_Incongruent_RedCue_GreenProbe_Bottom,GreenGaborBoth.png,RedGaborBoth.png,GreenGaborDisappearBottom.png,RedGaborBoth.png,Red.mp3,red,bottom,65,65,0,,,,0,65,65,21,1176.567252542,,,,,,,,,,,,,,,,bottom,,,,,,,,1176.551583042,1177.2343099999998,1177.234499792,1182.4839620829998,1182.4913622499998,1183.734017917,1183.735442917,1184.6843758329996,1184.6858509999997,1185.8185415419998,mostlyred,FinalRedContrast,FinalGreenContrast,1185.8188124999997,1186.8848935829997,5,051226kg,001,2026-05-12_10h14.19.149,priming,,2026.1.3,59.997389993531314,2026-05-12 10h14.19.485922 -0700,
GR_Congruent_GreenCue_GreenProbe_Bottom,GreenGaborBoth.png,RedGaborBoth.png,GreenGaborDisappearBottom.png,RedGaborBoth.png,Green.mp3,green,bottom,66,66,0,,,,0,66,66,51,1186.9006246669996,,,,,,,,,,,,,,,,bottom,,,,,,,,1186.8868533749996,1187.350976917,1187.3511416249999,1192.6006884999997,1192.6071226669997,1193.850681167,1193.851769042,1194.6177224579997,1194.6193923749997,1195.484806208,allgreen,FinalRedContrast,FinalGreenContrast,1195.486083833,1196.1014475829998,5,051226kg,001,2026-05-12_10h14.19.149,priming,,2026.1.3,59.997389993531314,2026-05-12 10h14.19.485922 -0700,
GR_Congruent_GreenCue_GreenProbe_Bottom,GreenGaborBoth.png,RedGaborBoth.png,GreenGaborDisappearBottom.png,RedGaborBoth.png,Green.mp3,green,bottom,67,67,0,,,,0,67,67,35,1196.1172864169998,,,,,,,,,,,,,,,,bottom,,,,,,,,1196.1015427919997,1196.484399167,1196.48456025,1201.734040708,1201.740335042,1202.984145083,1202.9858721669998,1203.6512117919997,1203.6526449169996,1205.0683586669998,mostlygreen,FinalRedContrast,FinalGreenContrast,1205.0689658329998,1205.6802602919997,5,051226kg,001,2026-05-12_10h14.19.149,priming,,2026.1.3,59.997389993531314,2026-05-12 10h14.19.485922 -0700,
GR_Incongruent_RedCue_GreenProbe_Top,GreenGaborBoth.png,RedGaborBoth.png,GreenGaborDisappearTop.png,RedGaborBoth.png,Red.mp3,red,top,68,68,0,,,,0,68,68,20,1205.7008475419998,,,,,,,,,,,,,,,,top,,,,,,,,1205.6818330419997,1206.070562375,1206.0707335829998,1211.317488958,1211.3238407919998,1212.567477,1212.5692933329997,1213.8678811249997,1213.8686252079997,1215.1850408749997,mostlygreen,FinalRedContrast,FinalGreenContrast,1215.1860569169999,1215.751626833,5,051226kg,001,2026-05-12_10h14.19.149,priming,,2026.1.3,59.997389993531314,2026-05-12 10h14.19.485922 -0700,
GR_Incongruent_GreenCue_RedProbe_Bottom,GreenGaborBoth.png,RedGaborBoth.png,GreenGaborBoth.png,RedGaborDisappearBottom.png,Green.mp3,green,bottom,69,69,0,,,,0,69,69,71,1215.7673342919998,,,,,,,,,,,,,,,,bottom,,,,,,,,1215.75371675,1216.1510724999998,1216.151235375,1221.400819083,1221.4083044999998,1222.65082475,1222.6526211669998,1223.601563583,1223.602438167,1224.585004083,evensplit,FinalRedContrast,FinalGreenContrast,1224.5861279169999,1225.1015722499997,5,051226kg,001,2026-05-12_10h14.19.149,priming,,2026.1.3,59.997389993531314,2026-05-12 10h14.19.485922 -0700,
GG_non_riv_catch_GreenCue_GreenProbe_Top,GreenGaborBoth.png,Blank.png,GreenGaborDisappearTop.png,Blank.png,Green.mp3,green,top,70,70,0,,,,0,70,70,78,1225.1173953329999,,,,,,,,,,,,,,,,top,,,,,,,,1225.101703417,1225.734441833,1225.734608417,1230.984143625,1230.990442417,1232.234131958,1232.23578275,1232.8679391669998,1232.8687368749997,1234.268211,allgreen,FinalRedContrast,FinalGreenContrast,1234.269490625,1234.8187134579998,5,051226kg,001,2026-05-12_10h14.19.149,priming,,2026.1.3,59.997389993531314,2026-05-12 10h14.19.485922 -0700,
GR_Congruent_RedCue_RedProbe_Bottom,GreenGaborBoth.png,RedGaborBoth.png,GreenGaborBoth.png,RedGaborDisappearBottom.png,Red.mp3,red,bottom,71,71,0,,,,0,71,71,33,1234.8340965829998,,,,,,,,,,,,,,,,bottom,,,,,,,,1234.8202808329997,1235.6177319169997,1235.617898208,1240.8675417499999,1240.8755662919998,1242.1175600419997,1242.11943875,1243.6347941669997,1243.635487042,1245.4517541669998,mostlyred,FinalRedContrast,FinalGreenContrast,1245.452485583,1246.4849596669997,5,051226kg,001,2026-05-12_10h14.19.149,priming,,2026.1.3,59.997389993531314,2026-05-12 10h14.19.485922 -0700,
GR_Congruent_GreenCue_GreenProbe_Bottom,GreenGaborBoth.png,RedGaborBoth.png,GreenGaborDisappearBottom.png,RedGaborBoth.png,Green.mp3,green,bottom,72,72,0,,,,0,72,72,59,1246.500757583,,,,,,,,,,,,,,,,bottom,,,,,,,,1246.4869465829997,1247.018171583,1247.018339542,1252.267564458,1252.274979375,1253.517542083,1253.5192364999998,1255.7846410829998,1255.786291417,1256.5349699169997,mostlygreen,FinalRedContrast,FinalGreenContrast,1256.536419,1257.2017139579998,5,051226kg,001,2026-05-12_10h14.19.149,priming,,2026.1.3,59.997389993531314,2026-05-12 10h14.19.485922 -0700,
GR_Congruent_RedCue_RedProbe_Bottom,GreenGaborBoth.png,RedGaborBoth.png,GreenGaborBoth.png,RedGaborDisappearBottom.png,Red.mp3,red,bottom,73,73,0,,,,0,73,73,57,1257.2176292499998,,,,,,,,,,,,,,,,bottom,,,,,,,,1257.2033737919996,1258.418119167,1258.4183104169997,1263.6676769169999,1263.67409525,1264.917644958,1264.91929575,1265.718009958,1265.719156958,1266.3683753749997,allgreen,FinalRedContrast,FinalGreenContrast,1266.369496583,1267.3017023329999,5,051226kg,001,2026-05-12_10h14.19.149,priming,,2026.1.3,59.997389993531314,2026-05-12 10h14.19.485922 -0700,
RR_non_riv_catch_GreenCue_RedProbe_Bottom,Blank.png,RedGaborBoth.png,Blank.png,RedGaborDisappearBottom.png,Green.mp3,green,bottom,74,74,0,,,,0,74,74,75,1267.317518167,,,,,,,,,,,,,,,,bottom,,,,,,,,1267.3035422499997,1267.6845617919998,1267.684724875,1272.934426708,1272.9398352079997,1274.1844082919997,1274.185844792,1275.134832667,1275.1359349169998,1275.8518669169998,allred,FinalRedContrast,FinalGreenContrast,1275.852836042,1276.701892125,5,051226kg,001,2026-05-12_10h14.19.149,priming,,2026.1.3,59.997389993531314,2026-05-12 10h14.19.485922 -0700,
GR_Congruent_RedCue_RedProbe_Top,GreenGaborBoth.png,RedGaborBoth.png,GreenGaborBoth.png,RedGaborDisappearTop.png,Red.mp3,red,top,75,75,0,,,,0,75,75,32,1276.7176250419998,,,,,,,,,,,,,,,,bottom,,,,,,,,1276.7035497499996,1277.1180219999997,1277.1181858749997,1282.367697625,1282.3751310829998,1283.6177899579998,1283.6191867499997,1284.8349842079997,1284.8357609579998,1286.068696375,mostlygreen,FinalRedContrast,FinalGreenContrast,1286.069858208,1287.301866667,5,051226kg,001,2026-05-12_10h14.19.149,priming,,2026.1.3,59.997389993531314,2026-05-12 10h14.19.485922 -0700,
GR_Congruent_RedCue_RedProbe_Bottom,GreenGaborBoth.png,RedGaborBoth.png,GreenGaborBoth.png,RedGaborDisappearBottom.png,Red.mp3,red,bottom,76,76,0,,,,0,76,76,41,1287.317678208,,,,,,,,,,,,,,,,bottom,,,,,,,,1287.3019642499999,1325.1348027079998,1325.134969792,1330.3845041669997,1330.390892333,1331.634604375,1331.635942292,1332.768256333,1332.7696794579997,1334.585319292,mostlygreen,FinalRedContrast,FinalGreenContrast,1334.5864271249998,1335.4853870419997,5,051226kg,001,2026-05-12_10h14.19.149,priming,,2026.1.3,59.997389993531314,2026-05-12 10h14.19.485922 -0700,
GR_Incongruent_GreenCue_RedProbe_Bottom,GreenGaborBoth.png,RedGaborBoth.png,GreenGaborBoth.png,RedGaborDisappearBottom.png,Green.mp3,green,bottom,77,77,0,,,,0,77,77,47,1335.5010428749997,,,,,,,,,,,,,,,,bottom,,,,,,,,1335.4872139999998,1336.168183917,1336.1683471669999,1341.417742917,1341.4241499169998,1342.6678043329998,1342.6694737919997,1343.5182183749998,1343.519873708,1344.985253542,allgreen,FinalRedContrast,FinalGreenContrast,1344.9862910829997,1345.835327417,5,051226kg,001,2026-05-12_10h14.19.149,priming,,2026.1.3,59.997389993531314,2026-05-12 10h14.19.485922 -0700,
GR_Congruent_RedCue_RedProbe_Bottom,GreenGaborBoth.png,RedGaborBoth.png,GreenGaborBoth.png,RedGaborDisappearBottom.png,Red.mp3,red,bottom,78,78,0,,,,0,78,78,1,1345.8511426249997,,,,,,,,,,,,,,,,bottom,,,,,,,,1345.836919542,1347.0849255419998,1347.0850867079998,1352.3346309999997,1352.3409665,1353.584642458,1353.5859999999998,1354.6018118749998,1354.6032112919997,1356.4356291249997,evensplit,FinalRedContrast,FinalGreenContrast,1356.436366,1357.268849042,5,051226kg,001,2026-05-12_10h14.19.149,priming,,2026.1.3,59.997389993531314,2026-05-12 10h14.19.485922 -0700,
GR_Congruent_RedCue_RedProbe_Top,GreenGaborBoth.png,RedGaborBoth.png,GreenGaborBoth.png,RedGaborDisappearTop.png,Red.mp3,red,top,79,79,0,,,,0,79,79,8,1357.284538333,,,,,,,,,,,,,,,,top,,,,,,,,1357.2689572079998,1358.268291375,1358.268456542,1363.5179671669998,1363.525397417,1364.767836292,1364.769402375,1366.5854251669998,1366.5862185,1368.1851575829996,mostlyred,FinalRedContrast,FinalGreenContrast,1368.186386333,1369.535521625,5,051226kg,001,2026-05-12_10h14.19.149,priming,,2026.1.3,59.997389993531314,2026-05-12 10h14.19.485922 -0700,
GR_Incongruent_RedCue_GreenProbe_Bottom,GreenGaborBoth.png,RedGaborBoth.png,GreenGaborDisappearBottom.png,RedGaborBoth.png,Red.mp3,red,bottom,80,0,1,,,,1,0,80,61,1369.551200583,,,,,,,,,,,,,,,,bottom,,,,,,,,1369.5356260419999,1370.5852885,1370.5854734169998,1375.834750208,1375.8423311669999,1377.0847046669996,1377.08615625,1378.9518752079998,1378.953380333,1380.3521579579997,evensplit,FinalRedContrast,FinalGreenContrast,1380.3530464169999,1380.9855432079999,5,051226kg,001,2026-05-12_10h14.19.149,priming,,2026.1.3,59.997389993531314,2026-05-12 10h14.19.485922 -0700,
GR_Incongruent_RedCue_GreenProbe_Top,GreenGaborBoth.png,RedGaborBoth.png,GreenGaborDisappearTop.png,RedGaborBoth.png,Red.mp3,red,top,81,1,1,,,,1,1,81,4,1381.001288333,,,,,,,,,,,,,,,,top,,,,,,,,1380.9856627079998,1381.3683084169998,1381.3684712499999,1386.6180667079998,1386.6255935,1387.868145417,1387.869786417,1388.9518794169999,1388.9531487079998,1390.0356257079998,mostlygreen,FinalRedContrast,FinalGreenContrast,1390.03624025,1390.702296083,5,051226kg,001,2026-05-12_10h14.19.149,priming,,2026.1.3,59.997389993531314,2026-05-12 10h14.19.485922 -0700,
GR_Congruent_GreenCue_GreenProbe_Top,GreenGaborBoth.png,RedGaborBoth.png,GreenGaborDisappearTop.png,RedGaborBoth.png,Green.mp3,green,top,82,2,1,,,,1,2,82,18,1390.71804325,,,,,,,,,,,,,,,,top,,,,,,,,1390.704283958,1391.1684651249998,1391.1686317919998,1396.41813375,1396.424541208,1397.668135417,1397.669972958,1399.8351942079998,1399.836460083,1400.6855780419996,mostlygreen,FinalRedContrast,FinalGreenContrast,1400.686808042,1401.318826833,5,051226kg,001,2026-05-12_10h14.19.149,priming,,2026.1.3,59.997389993531314,2026-05-12 10h14.19.485922 -0700,
GR_Incongruent_RedCue_GreenProbe_Bottom,GreenGaborBoth.png,RedGaborBoth.png,GreenGaborDisappearBottom.png,RedGaborBoth.png,Red.mp3,red,bottom,83,3,1,,,,1,3,83,29,1401.3347114999997,,,,,,,,,,,,,,,,bottom,,,,,,,,1401.320491042,1401.9183951669997,1401.918558667,1407.1680832919997,1407.1744091249998,1408.418069417,1408.419556667,1409.402031958,1409.4026274999997,1410.685728417,mostlygreen,FinalRedContrast,FinalGreenContrast,1410.6867551249998,1411.4022,5,051226kg,001,2026-05-12_10h14.19.149,priming,,2026.1.3,59.997389993531314,2026-05-12 10h14.19.485922 -0700,
GR_Incongruent_GreenCue_RedProbe_Bottom,GreenGaborBoth.png,RedGaborBoth.png,GreenGaborBoth.png,RedGaborDisappearBottom.png,Green.mp3,green,bottom,84,4,1,,,,1,4,84,31,1411.4181049169997,,,,,,,,,,,,,,,,bottom,,,,,,,,1411.4040638329998,1411.951699667,1411.951861083,1417.201509292,1417.2085391669998,1418.4514517919997,1418.4529319169997,1420.7019647499997,1420.7029737499997,1421.3690126669999,allgreen,FinalRedContrast,FinalGreenContrast,1421.3697187499997,1422.0857877499998,5,051226kg,001,2026-05-12_10h14.19.149,priming,,2026.1.3,59.997389993531314,2026-05-12 10h14.19.485922 -0700,
RR_non_riv_catch_RedCue_RedProbe_Bottom,Blank.png,RedGaborBoth.png,Blank.png,RedGaborDisappearBottom.png,Red.mp3,red,bottom,85,5,1,,,,1,5,85,73,1422.1015174579998,,,,,,,,,,,,,,,,bottom,,,,,,,,1422.0875259169998,1422.4685346669999,1422.4687008329997,1427.718272042,1427.7244582919998,1428.968262417,1428.96974275,1429.7519625,1429.753237375,1430.8189858329997,allred,FinalRedContrast,FinalGreenContrast,1430.8200689169998,1431.652474,5,051226kg,001,2026-05-12_10h14.19.149,priming,,2026.1.3,59.997389993531314,2026-05-12 10h14.19.485922 -0700,
GG_non_riv_catch_RedCue_GreenProbe_Bottom,GreenGaborBoth.png,Blank.png,GreenGaborDisappearBottom.png,Blank.png,Red.mp3,red,bottom,86,6,1,,,,1,6,86,77,1431.6681282079999,,,,,,,,,,,,,,,,bottom,,,,,,,,1431.6525752499997,1433.1352242079997,1433.1353912079999,1438.384917333,1438.390357708,1439.634935042,1439.636257708,1440.3020995419997,1440.3031605829997,1441.785731333,allgreen,FinalRedContrast,FinalGreenContrast,1441.786868583,1442.452416917,5,051226kg,001,2026-05-12_10h14.19.149,priming,,2026.1.3,59.997389993531314,2026-05-12 10h14.19.485922 -0700,
GG_non_riv_catch_GreenCue_GreenProbe_Top,GreenGaborBoth.png,Blank.png,GreenGaborDisappearTop.png,Blank.png,Green.mp3,green,top,87,7,1,,,,1,7,87,78,1442.468137625,,,,,,,,,,,,,,,,top,,,,,,,,1442.4542798749999,1442.9018809579998,1442.9020486669997,1448.1515945419997,1448.156995417,1449.4016889999998,1449.4032092499997,1450.068763458,1450.069727917,1451.569048292,allgreen,FinalRedContrast,FinalGreenContrast,1451.5701199169998,1452.785715167,5,051226kg,001,2026-05-12_10h14.19.149,priming,,2026.1.3,59.997389993531314,2026-05-12 10h14.19.485922 -0700,
GR_Congruent_GreenCue_GreenProbe_Bottom,GreenGaborBoth.png,RedGaborBoth.png,GreenGaborDisappearBottom.png,RedGaborBoth.png,Green.mp3,green,bottom,88,8,1,,,,1,8,88,43,1452.801561625,,,,,,,,,,,,,,,,bottom,,,,,,,,1452.7858120419996,1453.385559708,1453.3857412499997,1458.63507025,1458.641390875,1459.8850498749998,1459.8865477499999,1461.0020961669998,1461.003410417,1461.90251825,mostlygreen,FinalRedContrast,FinalGreenContrast,1461.903617292,1463.7862397919998,5,051226kg,001,2026-05-12_10h14.19.149,priming,,2026.1.3,59.997389993531314,2026-05-12 10h14.19.485922 -0700,
GR_Congruent_GreenCue_GreenProbe_Top,GreenGaborBoth.png,RedGaborBoth.png,GreenGaborDisappearTop.png,RedGaborBoth.png,Green.mp3,green,top,89,9,1,,,,1,9,89,34,1463.801618167,,,,,,,,,,,,,,,,bottom,,,,,,,,1463.7863362079997,1464.2186461249999,1464.2188112079998,1469.4682364579999,1469.474593083,1470.7183864169997,1470.720139958,1473.4187902919998,1473.4203805829998,1474.4527227499998,allred,FinalRedContrast,FinalGreenContrast,1474.4533280829996,1475.6525228749997,5,051226kg,001,2026-05-12_10h14.19.149,priming,,2026.1.3,59.997389993531314,2026-05-12 10h14.19.485922 -0700,
GR_Incongruent_RedCue_GreenProbe_Top,GreenGaborBoth.png,RedGaborBoth.png,GreenGaborDisappearTop.png,RedGaborBoth.png,Red.mp3,red,top,90,10,1,,,,1,10,90,12,1475.6682339169997,,,,,,,,,,,,,,,,top,,,,,,,,1475.6542055,1476.2686711669999,1476.268838375,1481.5183592499998,1481.524829375,1482.7683848749998,1482.7701284169998,1484.1021472079997,1484.1031816249997,1485.3691439579998,allgreen,FinalRedContrast,FinalGreenContrast,1485.369832083,1486.030761125,5,051226kg,001,2026-05-12_10h14.19.149,priming,,2026.1.3,59.997389993531314,2026-05-12 10h14.19.485922 -0700,
GR_Incongruent_GreenCue_RedProbe_Top,GreenGaborBoth.png,RedGaborBoth.png,GreenGaborBoth.png,RedGaborDisappearTop.png,Green.mp3,green,top,91,11,1,,,,1,11,91,46,1486.0515451249998,,,,,,,,,,,,,,,,top,,,,,,,,1486.0325740419999,1486.38113225,1486.381375208,1491.6183970419997,1491.6260077079996,1492.8685231669997,1492.8701124999998,1494.418911458,1494.4204527499996,1495.4860371669997,evensplit,FinalRedContrast,FinalGreenContrast,1495.4866092499997,1496.1862718329999,5,051226kg,001,2026-05-12_10h14.19.149,priming,,2026.1.3,59.997389993531314,2026-05-12 10h14.19.485922 -0700,
GR_Congruent_GreenCue_GreenProbe_Bottom,GreenGaborBoth.png,RedGaborBoth.png,GreenGaborDisappearBottom.png,RedGaborBoth.png,Green.mp3,green,bottom,92,12,1,,,,1,12,92,19,1496.2017192079998,,,,,,,,,,,,,,,,bottom,,,,,,,,1496.186375708,1496.9188132079998,1496.918976375,1502.168514042,1502.176088917,1503.4183817079997,1503.420317875,1504.5522784169998,1504.55397975,1506.7359649169998,allgreen,FinalRedContrast,FinalGreenContrast,1506.7373668749997,1507.4026170829998,5,051226kg,001,2026-05-12_10h14.19.149,priming,,2026.1.3,59.997389993531314,2026-05-12 10h14.19.485922 -0700,
GR_Congruent_RedCue_RedProbe_Top,GreenGaborBoth.png,RedGaborBoth.png,GreenGaborBoth.png,RedGaborDisappearTop.png,Red.mp3,red,top,93,13,1,,,,1,13,93,24,1507.418365167,,,,,,,,,,,,,,,,top,,,,,,,,1507.4042882079998,1507.8188794999996,1507.819044292,1513.0684703749998,1513.0749282919996,1514.3184780829997,1514.319735125,1515.552433708,1515.553705375,1516.8460634579997,allred,FinalRedContrast,FinalGreenContrast,1516.8463580829998,1518.173422167,5,051226kg,001,2026-05-12_10h14.19.149,priming,,2026.1.3,59.997389993531314,2026-05-12 10h14.19.485922 -0700,
GR_Congruent_GreenCue_GreenProbe_Bottom,GreenGaborBoth.png,RedGaborBoth.png,GreenGaborDisappearBottom.png,RedGaborBoth.png,Green.mp3,green,bottom,94,14,1,,,,1,14,94,11,1518.1850521669999,,,,,,,,,,,,,,,,bottom,,,,,,,,1518.175232,1518.661892958,1518.662062542,1523.901842833,1523.908280958,1525.1517909579998,1525.1535026249999,1526.2023654169998,1526.203427083,1526.935929833,mostlygreen,FinalRedContrast,FinalGreenContrast,1526.937158708,1527.4527201249998,5,051226kg,001,2026-05-12_10h14.19.149,priming,,2026.1.3,59.997389993531314,2026-05-12 10h14.19.485922 -0700,
GR_Congruent_GreenCue_GreenProbe_Bottom,GreenGaborBoth.png,RedGaborBoth.png,GreenGaborDisappearBottom.png,RedGaborBoth.png,Green.mp3,green,bottom,95,15,1,,,,1,15,95,3,1527.4683902919996,,,,,,,,,,,,,,,,bottom,,,,,,,,1527.452821417,1527.868752333,1527.8689183329998,1533.118607042,1533.1251094579998,1534.368641125,1534.3698437079997,1535.4023795419998,1535.4031180829998,1536.386182583,allred,FinalRedContrast,FinalGreenContrast,1536.3870402079997,1537.9698242079999,5,051226kg,001,2026-05-12_10h14.19.149,priming,,2026.1.3,59.997389993531314,2026-05-12 10h14.19.485922 -0700,
GR_Congruent_GreenCue_GreenProbe_Bottom,GreenGaborBoth.png,RedGaborBoth.png,GreenGaborDisappearBottom.png,RedGaborBoth.png,Green.mp3,green,bottom,96,16,1,,,,1,16,96,51,1537.985280417,,,,,,,,,,,,,,,,bottom,,,,,,,,1537.9699208329998,1538.718910042,1538.7190706249999,1543.968585042,1543.9749743329999,1545.2186052499997,1545.2200922919997,1545.9523811249996,1545.9539329579998,1546.96979375,allgreen,FinalRedContrast,FinalGreenContrast,1546.970063583,1547.569445917,5,051226kg,001,2026-05-12_10h14.19.149,priming,,2026.1.3,59.997389993531314,2026-05-12 10h14.19.485922 -0700,
GR_Congruent_GreenCue_GreenProbe_Top,GreenGaborBoth.png,RedGaborBoth.png,GreenGaborDisappearTop.png,RedGaborBoth.png,Green.mp3,green,top,97,17,1,,,,1,17,97,10,1547.5851956249999,,,,,,,,,,,,,,,,top,,,,,,,,1547.569541292,1547.935563208,1547.9357273749997,1553.185290542,1553.1916646249997,1554.4353040829997,1554.436774583,1557.185759083,1557.1867968329998,1558.1527852499999,mostlyred,FinalRedContrast,FinalGreenContrast,1558.1539296249998,1559.736015292,5,051226kg,001,2026-05-12_10h14.19.149,priming,,2026.1.3,59.997389993531314,2026-05-12 10h14.19.485922 -0700,
GR_Congruent_RedCue_RedProbe_Bottom,GreenGaborBoth.png,RedGaborBoth.png,GreenGaborBoth.png,RedGaborDisappearBottom.png,Red.mp3,red,bottom,98,18,1,,,,1,18,98,57,1559.7518824169997,,,,,,,,,,,,,,,,bottom,,,,,,,,1559.73776825,1562.285569833,1562.2857361669999,1567.5354212079997,1567.5430003329998,1568.7854266669997,1568.786834,1571.519166,1571.52077925,1572.6528914169999,allred,FinalRedContrast,FinalGreenContrast,1572.653903375,1573.802906167,5,051226kg,001,2026-05-12_10h14.19.149,priming,,2026.1.3,59.997389993531314,2026-05-12 10h14.19.485922 -0700,
GR_Incongruent_GreenCue_RedProbe_Bottom,GreenGaborBoth.png,RedGaborBoth.png,GreenGaborBoth.png,RedGaborDisappearBottom.png,Green.mp3,green,bottom,99,19,1,,,,1,19,99,55,1573.8187078749997,,,,,,,,,,,,,,,,bottom,,,,,,,,1573.804842208,1577.1691148749997,1577.169282583,1582.418794625,1582.4252380419998,1583.668718333,1583.6706110829996,1585.019223875,1585.0207743750002,1586.369613417,allred,FinalRedContrast,FinalGreenContrast,1586.370752792,1587.4195544580002,5,051226kg,001,2026-05-12_10h14.19.149,priming,,2026.1.3,59.997389993531314,2026-05-12 10h14.19.485922 -0700,
GR_Incongruent_GreenCue_RedProbe_Top,GreenGaborBoth.png,RedGaborBoth.png,GreenGaborBoth.png,RedGaborDisappearTop.png,Green.mp3,green,top,100,20,1,,,,1,20,100,6,1587.4353628329995,,,,,,,,,,,,,,,,top,,,,,,,,1587.4196496250001,1587.935689208,1587.935850458,1593.185398792,1593.1918249999994,1594.435450292,1594.4369837079998,1596.2691950000003,1596.270791083,1597.5029124999996,mostlyred,FinalRedContrast,FinalGreenContrast,1597.5039142499995,1598.3862532079997,5,051226kg,001,2026-05-12_10h14.19.149,priming,,2026.1.3,59.997389993531314,2026-05-12 10h14.19.485922 -0700,
RR_non_riv_catch_GreenCue_RedProbe_Bottom,Blank.png,RedGaborBoth.png,Blank.png,RedGaborDisappearBottom.png,Green.mp3,green,bottom,101,21,1,,,,1,21,101,75,1598.4020447919997,,,,,,,,,,,,,,,,bottom,,,,,,,,1598.3863487499998,1599.1357699169998,1599.1359401670002,1604.3855212920002,1604.3917636250003,1605.6356097080002,1605.6373728329995,1607.1529931250002,1607.1539456249998,1608.1574085420002,allred,FinalRedContrast,FinalGreenContrast,1608.1576860419996,1609.0197282080003,5,051226kg,001,2026-05-12_10h14.19.149,priming,,2026.1.3,59.997389993531314,2026-05-12 10h14.19.485922 -0700,
GR_Incongruent_GreenCue_RedProbe_Bottom,GreenGaborBoth.png,RedGaborBoth.png,GreenGaborBoth.png,RedGaborDisappearBottom.png,Green.mp3,green,bottom,102,22,1,,,,1,22,102,71,1609.0355251249998,,,,,,,,,,,,,,,,bottom,,,,,,,,1609.019837708,1609.419164542,1609.4193270829996,1614.6688590829995,1614.6753158750003,1615.9188960420001,1615.9208127079996,1617.3526135420002,1617.354144208,1618.6363822919998,allgreen,FinalRedContrast,FinalGreenContrast,1618.6370044999999,1619.4530357079998,5,051226kg,001,2026-05-12_10h14.19.149,priming,,2026.1.3,59.997389993531314,2026-05-12 10h14.19.485922 -0700,
GR_Incongruent_RedCue_GreenProbe_Top,GreenGaborBoth.png,RedGaborBoth.png,GreenGaborDisappearTop.png,RedGaborBoth.png,Red.mp3,red,top,103,23,1,,,,1,23,103,60,1619.4688166250003,,,,,,,,,,,,,,,,top,,,,,,,,1619.4548164579996,1619.952515292,1619.952684333,1625.2022499999998,1625.208750958,1626.4522565829998,1626.4538465419996,1627.3860014999996,1627.3866749579997,1629.1700012919996,mostlygreen,FinalRedContrast,FinalGreenContrast,1629.1702837919997,1630.1700554579998,5,051226kg,001,2026-05-12_10h14.19.149,priming,,2026.1.3,59.997389993531314,2026-05-12 10h14.19.485922 -0700,
RR_non_riv_catch_RedCue_RedProbe_Top,Blank.png,RedGaborBoth.png,Blank.png,RedGaborDisappearTop.png,Red.mp3,red,top,104,24,1,,,,1,24,104,72,1630.18548625,,,,,,,,,,,,,,,,top,,,,,,,,1630.1701507080002,1630.569224208,1630.5693912499996,1635.8188688329997,1635.8244542500001,1637.0689118329997,1637.0704645829996,1637.71941525,1637.7207522499998,1638.5700002079998,allred,FinalRedContrast,FinalGreenContrast,1638.5702730420003,1639.4198838749994,5,051226kg,001,2026-05-12_10h14.19.149,priming,,2026.1.3,59.997389993531314,2026-05-12 10h14.19.485922 -0700,
GR_Incongruent_GreenCue_RedProbe_Top,GreenGaborBoth.png,RedGaborBoth.png,GreenGaborBoth.png,RedGaborDisappearTop.png,Green.mp3,green,top,105,25,1,,,,1,25,105,38,1639.435642375,,,,,,,,,,,,,,,,top,,,,,,,,1639.4218275420003,1639.8860005000001,1639.8861674579998,1645.1356787499994,1645.142209,1646.3856725,1646.38732425,1648.052715333,1648.054278958,1650.7364944999995,mostlygreen,FinalRedContrast,FinalGreenContrast,1650.737108875,1651.6364765829999,5,051226kg,001,2026-05-12_10h14.19.149,priming,,2026.1.3,59.997389993531314,2026-05-12 10h14.19.485922 -0700,
GR_Congruent_RedCue_RedProbe_Top,GreenGaborBoth.png,RedGaborBoth.png,GreenGaborBoth.png,RedGaborDisappearTop.png,Red.mp3,red,top,106,26,1,,,,1,26,106,32,1651.6522624579998,,,,,,,,,,,,,,,,top,,,,,,,,1651.6381207499994,1652.2693034580002,1652.269469542,1657.5190098749995,1657.525548917,1658.7690514579995,1658.7702205829996,1660.4361106250003,1660.4371241249996,1661.1864153749998,allred,FinalRedContrast,FinalGreenContrast,1661.187430083,1661.4698877919996,1,051226kg,001,2026-05-12_10h14.19.149,priming,,2026.1.3,59.997389993531314,2026-05-12 10h14.19.485922 -0700,
GR_Congruent_GreenCue_GreenProbe_Bottom,GreenGaborBoth.png,RedGaborBoth.png,GreenGaborDisappearBottom.png,RedGaborBoth.png,Green.mp3,green,bottom,107,27,1,,,,1,27,107,27,1661.4855357499996,,,,,,,,,,,,,,,,bottom,,,,,,,,1661.4718995420003,1667.753002375,1667.7532003330002,1673.0023577919997,1673.0088775419995,1674.2523016669998,1674.2539059999995,1676.1029308749999,1676.104552958,1677.2699629169997,mostlygreen,FinalRedContrast,FinalGreenContrast,1677.2706716669995,1678.353655417,5,051226kg,001,2026-05-12_10h14.19.149,priming,,2026.1.3,59.997389993531314,2026-05-12 10h14.19.485922 -0700,
GR_Congruent_GreenCue_GreenProbe_Bottom,GreenGaborBoth.png,RedGaborBoth.png,GreenGaborDisappearBottom.png,RedGaborBoth.png,Green.mp3,green,bottom,108,28,1,,,,1,28,108,67,1678.3690564579997,,,,,,,,,,,,,,,,bottom,,,,,,,,1678.3537504169994,1679.1694876249999,1679.1696527500003,1684.4190142920002,1684.4254974169994,1685.669148292,1685.6709031249998,1686.4529079580002,1686.4538599579996,1687.4700293749997,evensplit,FinalRedContrast,FinalGreenContrast,1687.4705424999997,1688.3367642500002,5,051226kg,001,2026-05-12_10h14.19.149,priming,,2026.1.3,59.997389993531314,2026-05-12 10h14.19.485922 -0700,
GR_Incongruent_GreenCue_RedProbe_Top,GreenGaborBoth.png,RedGaborBoth.png,GreenGaborBoth.png,RedGaborDisappearTop.png,Green.mp3,green,top,109,29,1,,,,1,29,109,30,1688.3520829169997,,,,,,,,,,,,,,,,top,,,,,,,,1688.336918333,1688.7860756249997,1688.7862406669997,1694.0358003750002,1694.0423150829997,1695.2857873749995,1695.2874677079994,1696.3861319169996,1696.3876766669996,1698.1032878330002,mostlyred,FinalRedContrast,FinalGreenContrast,1698.1044004579994,1698.911397542,5,051226kg,001,2026-05-12_10h14.19.149,priming,,2026.1.3,59.997389993531314,2026-05-12 10h14.19.485922 -0700,
GR_Incongruent_RedCue_GreenProbe_Bottom,GreenGaborBoth.png,RedGaborBoth.png,GreenGaborDisappearBottom.png,RedGaborBoth.png,Red.mp3,red,bottom,110,30,1,,,,1,30,110,21,1698.9187964999996,,,,,,,,,,,,,,,,bottom,,,,,,,,1698.913009417,1699.5028192919995,1699.5029883330003,1704.7524947919997,1704.7589259169995,1706.0024939580003,1706.0039662920003,1706.7362214170003,1706.7380772499996,1707.3369680829996,mostlyred,FinalRedContrast,FinalGreenContrast,1707.3373318749996,1708.2199630419996,5,051226kg,001,2026-05-12_10h14.19.149,priming,,2026.1.3,59.997389993531314,2026-05-12 10h14.19.485922 -0700,
GR_Congruent_RedCue_RedProbe_Top,GreenGaborBoth.png,RedGaborBoth.png,GreenGaborBoth.png,RedGaborDisappearTop.png,Red.mp3,red,top,111,31,1,,,,1,31,111,16,1708.2357190830003,,,,,,,,,,,,,,,,top,,,,,,,,1708.2200695830002,1708.6527608330002,1708.6529219580002,1713.9026228749995,1713.9090321669996,1715.1526596669996,1715.1540493329999,1716.1367960419998,1716.1375992919998,1719.2033958750003,mostlygreen,FinalRedContrast,FinalGreenContrast,1719.2044407500002,1720.253375875,5,051226kg,001,2026-05-12_10h14.19.149,priming,,2026.1.3,59.997389993531314,2026-05-12 10h14.19.485922 -0700,
GR_Congruent_RedCue_RedProbe_Bottom,GreenGaborBoth.png,RedGaborBoth.png,GreenGaborBoth.png,RedGaborDisappearBottom.png,Red.mp3,red,bottom,112,32,1,,,,1,32,112,9,1720.2691913329995,,,,,,,,,,,,,,,,bottom,,,,,,,,1720.2534879999998,2125.737690583,2125.737859333,2130.9873299999995,2130.9964873329995,2132.237316417,2132.238902417,2133.5544412080003,2133.5552319579997,2135.054733542,mostlygreen,FinalRedContrast,FinalGreenContrast,2135.0568145419998,2135.7382678749996,5,051226kg,001,2026-05-12_10h14.19.149,priming,,2026.1.3,59.997389993531314,2026-05-12 10h14.19.485922 -0700,
GR_Incongruent_RedCue_GreenProbe_Top,GreenGaborBoth.png,RedGaborBoth.png,GreenGaborDisappearTop.png,RedGaborBoth.png,Red.mp3,red,top,113,33,1,,,,1,33,113,44,2135.7538569579997,,,,,,,,,,,,,,,,top,,,,,,,,2135.7383640000003,2136.0709878329994,2136.071147667,2141.3208059579997,2141.327662958,2142.5707272079994,2142.572593958,2143.9544589169996,2143.955298792,2144.988181417,evensplit,FinalRedContrast,FinalGreenContrast,2144.9893405,2146.088171125,5,051226kg,001,2026-05-12_10h14.19.149,priming,,2026.1.3,59.997389993531314,2026-05-12 10h14.19.485922 -0700,
GR_Incongruent_GreenCue_RedProbe_Bottom,GreenGaborBoth.png,RedGaborBoth.png,GreenGaborBoth.png,RedGaborDisappearBottom.png,Green.mp3,green,bottom,114,34,1,,,,1,34,114,15,2146.103965,,,,,,,,,,,,,,,,bottom,,,,,,,,2146.0901443749995,2146.604371875,2146.6045347080003,2151.8540522079998,2151.860377208,2153.1040848749994,2153.1057182499994,2153.8210440830003,2153.8227660420002,2154.9548165829997,evensplit,FinalRedContrast,FinalGreenContrast,2154.956252042,2155.6311552499997,5,051226kg,001,2026-05-12_10h14.19.149,priming,,2026.1.3,59.997389993531314,2026-05-12 10h14.19.485922 -0700,
GR_Congruent_RedCue_RedProbe_Top,GreenGaborBoth.png,RedGaborBoth.png,GreenGaborBoth.png,RedGaborDisappearTop.png,Red.mp3,red,top,115,35,1,,,,1,35,115,48,2155.636963042,,,,,,,,,,,,,,,,bottom,,,,,,,,2155.6327063329995,2156.197775542,2156.1979473750002,2161.4374989579997,2161.4448417500003,2162.6874964579997,2162.688944958,2163.4716322500003,2163.472752833,2164.1383226249995,mostlyred,FinalRedContrast,FinalGreenContrast,2164.13930475,2164.7382400829997,5,051226kg,001,2026-05-12_10h14.19.149,priming,,2026.1.3,59.997389993531314,2026-05-12 10h14.19.485922 -0700,
GR_Incongruent_RedCue_GreenProbe_Bottom,GreenGaborBoth.png,RedGaborBoth.png,GreenGaborDisappearBottom.png,RedGaborBoth.png,Red.mp3,red,bottom,116,36,1,,,,1,36,116,45,2164.7540212500003,,,,,,,,,,,,,,,,bottom,,,,,,,,2164.738335208,2165.1044514170003,2165.1046147499997,2170.354192292,2170.36164175,2171.604123208,2171.605675042,2172.954508667,2172.955766083,2175.6549755419996,mostlygreen,FinalRedContrast,FinalGreenContrast,2175.6559911669997,2176.141296042,5,051226kg,001,2026-05-12_10h14.19.149,priming,,2026.1.3,59.997389993531314,2026-05-12 10h14.19.485922 -0700,
GR_Congruent_GreenCue_GreenProbe_Top,GreenGaborBoth.png,RedGaborBoth.png,GreenGaborDisappearTop.png,RedGaborBoth.png,Green.mp3,green,top,117,37,1,,,,1,37,117,50,2176.154108792,,,,,,,,,,,,,,,,top,,,,,,,,2176.1432241669995,2176.491609833,2176.4917783329997,2181.73737925,2181.743855208,2182.987518208,2182.9887646249995,2183.737791125,2183.739363333,2184.9715939169996,mostlygreen,FinalRedContrast,FinalGreenContrast,2184.972240042,2185.671999625,5,051226kg,001,2026-05-12_10h14.19.149,priming,,2026.1.3,59.997389993531314,2026-05-12 10h14.19.485922 -0700,
GR_Incongruent_RedCue_GreenProbe_Top,GreenGaborBoth.png,RedGaborBoth.png,GreenGaborDisappearTop.png,RedGaborBoth.png,Red.mp3,red,top,118,38,1,,,,1,38,118,68,2185.6873851670002,,,,,,,,,,,,,,,,top,,,,,,,,2185.6736947080003,2186.0880709999997,2186.0882542080003,2191.3374785829997,2191.3438368330003,2192.5874292080002,2192.5890830000003,2193.4044669580003,2193.40618975,2195.855037,mostlygreen,FinalRedContrast,FinalGreenContrast,2195.856134542,2196.8717938329996,5,051226kg,001,2026-05-12_10h14.19.149,priming,,2026.1.3,59.997389993531314,2026-05-12 10h14.19.485922 -0700,
GG_non_riv_catch_GreenCue_GreenProbe_Bottom,GreenGaborBoth.png,Blank.png,GreenGaborDisappearBottom.png,Blank.png,Green.mp3,green,bottom,119,39,1,,,,1,39,119,79,2196.8875476669996,,,,,,,,,,,,,,,,bottom,,,,,,,,2196.8736790830003,2197.5212729580003,2197.5214669169995,2202.7708996669994,2202.777059417,2204.020938125,2204.022451542,2204.638035333,2204.6394958329997,2206.0384067499995,allgreen,FinalRedContrast,FinalGreenContrast,2206.039368417,2206.5416135419996,5,051226kg,001,2026-05-12_10h14.19.149,priming,,2026.1.3,59.997389993531314,2026-05-12 10h14.19.485922 -0700,
GR_Incongruent_GreenCue_RedProbe_Top,GreenGaborBoth.png,RedGaborBoth.png,GreenGaborBoth.png,RedGaborDisappearTop.png,Green.mp3,green,top,120,40,1,,,,1,40,120,14,2206.5541561249997,,,,,,,,,,,,,,,,top,,,,,,,,2206.54171,2206.9240339169996,2206.924202625,2212.1709285419997,2212.1772450000003,2213.4209655419995,2213.422409792,2214.3713549999998,2214.372813208,2215.438437958,evensplit,FinalRedContrast,FinalGreenContrast,2215.4395021249998,2216.421705417,5,051226kg,001,2026-05-12_10h14.19.149,priming,,2026.1.3,59.997389993531314,2026-05-12 10h14.19.485922 -0700,
GR_Incongruent_RedCue_GreenProbe_Top,GreenGaborBoth.png,RedGaborBoth.png,GreenGaborDisappearTop.png,RedGaborBoth.png,Red.mp3,red,top,121,41,1,,,,1,41,121,36,2216.437502708,,,,,,,,,,,,,,,,top,,,,,,,,2216.4235173330003,2216.821218875,2216.8213838750003,2222.0708378329996,2222.0772161669997,2223.320882583,2223.322797083,2224.1712664169995,2224.1730273749995,2225.0549927079996,mostlygreen,FinalRedContrast,FinalGreenContrast,2225.056124542,2225.721781125,5,051226kg,001,2026-05-12_10h14.19.149,priming,,2026.1.3,59.997389993531314,2026-05-12 10h14.19.485922 -0700,
GR_Incongruent_GreenCue_RedProbe_Top,GreenGaborBoth.png,RedGaborBoth.png,GreenGaborBoth.png,RedGaborDisappearTop.png,Green.mp3,green,top,122,42,1,,,,1,42,122,62,2225.737496583,,,,,,,,,,,,,,,,top,,,,,,,,2225.7235924169995,2226.0883333750003,2226.088503708,2231.337567958,2231.3439524170003,2232.587713292,2232.589612292,2233.6548305829997,2233.6557002079994,2235.03854775,allred,FinalRedContrast,FinalGreenContrast,2235.0395849579995,2235.871916333,5,051226kg,001,2026-05-12_10h14.19.149,priming,,2026.1.3,59.997389993531314,2026-05-12 10h14.19.485922 -0700,
GR_Congruent_GreenCue_GreenProbe_Top,GreenGaborBoth.png,RedGaborBoth.png,GreenGaborDisappearTop.png,RedGaborBoth.png,Green.mp3,green,top,123,43,1,,,,1,43,123,2,2235.887562667,,,,,,,,,,,,,,,,top,,,,,,,,2235.872014375,2236.271392542,2236.2715529169996,2241.5211177079996,2241.5275027499997,2242.7710634580003,2242.7728098329994,2243.971524958,2243.9731358329996,2245.088835792,mostlygreen,FinalRedContrast,FinalGreenContrast,2245.089145833,2246.1719722499997,5,051226kg,001,2026-05-12_10h14.19.149,priming,,2026.1.3,59.997389993531314,2026-05-12 10h14.19.485922 -0700,
GR_Congruent_RedCue_RedProbe_Bottom,GreenGaborBoth.png,RedGaborBoth.png,GreenGaborBoth.png,RedGaborDisappearBottom.png,Red.mp3,red,bottom,124,44,1,,,,1,44,124,33,2246.1876909999996,,,,,,,,,,,,,,,,bottom,,,,,,,,2246.1736474169998,2246.821369,2246.8215314579998,2252.071088542,2252.077523792,2253.3210769169996,2253.3226165,2254.221388167,2254.2230552919996,2255.238613833,mostlygreen,FinalRedContrast,FinalGreenContrast,2255.239598292,2256.005221375,5,051226kg,001,2026-05-12_10h14.19.149,priming,,2026.1.3,59.997389993531314,2026-05-12 10h14.19.485922 -0700,
GR_Incongruent_GreenCue_RedProbe_Top,GreenGaborBoth.png,RedGaborBoth.png,GreenGaborBoth.png,RedGaborDisappearTop.png,Green.mp3,green,top,125,45,1,,,,1,45,125,54,2256.0209829170003,,,,,,,,,,,,,,,,top,,,,,,,,2256.007226,2256.571368542,2256.571533625,2261.8210849169996,2261.827420458,2263.0710587500002,2263.0728715,2264.9048464169996,2264.90569225,2266.0551569169997,allred,FinalRedContrast,FinalGreenContrast,2266.0561376250002,2266.6218532919997,5,051226kg,001,2026-05-12_10h14.19.149,priming,,2026.1.3,59.997389993531314,2026-05-12 10h14.19.485922 -0700,
GR_Congruent_RedCue_RedProbe_Top,GreenGaborBoth.png,RedGaborBoth.png,GreenGaborBoth.png,RedGaborDisappearTop.png,Red.mp3,red,top,126,46,1,,,,1,46,126,64,2266.6377095000003,,,,,,,,,,,,,,,,top,,,,,,,,2266.623629917,2267.554732917,2267.5548982079995,2272.804518917,2272.8108785829995,2274.0544188749996,2274.0561537500002,2275.471606208,2275.473257583,2277.755417,allred,FinalRedContrast,FinalGreenContrast,2277.7565029579996,2278.7885826669994,5,051226kg,001,2026-05-12_10h14.19.149,priming,,2026.1.3,59.997389993531314,2026-05-12 10h14.19.485922 -0700,
GR_Incongruent_GreenCue_RedProbe_Bottom,GreenGaborBoth.png,RedGaborBoth.png,GreenGaborBoth.png,RedGaborDisappearBottom.png,Green.mp3,green,bottom,127,47,1,,,,1,47,127,7,2278.804451333,,,,,,,,,,,,,,,,bottom,,,,,,,,2278.7904155,2279.3714849169996,2279.3716510829995,2284.6211834579995,2284.6274835,2285.8713158329997,2285.8724961249995,2286.821666167,2286.823082417,2288.622080875,allred,FinalRedContrast,FinalGreenContrast,2288.6226919999995,2289.488700417,5,051226kg,001,2026-05-12_10h14.19.149,priming,,2026.1.3,59.997389993531314,2026-05-12 10h14.19.485922 -0700,
RR_non_riv_catch_GreenCue_RedProbe_Top,Blank.png,RedGaborBoth.png,Blank.png,RedGaborDisappearTop.png,Green.mp3,green,top,128,48,1,,,,1,48,128,74,2289.5045149169996,,,,,,,,,,,,,,,,top,,,,,,,,2289.488794583,2290.2215449579994,2290.221711167,2295.471197542,2295.4765759999996,2296.7212268749995,2296.722790708,2300.005410458,2300.005888667,2300.955394542,allred,FinalRedContrast,FinalGreenContrast,2300.956539208,2301.88872375,5,051226kg,001,2026-05-12_10h14.19.149,priming,,2026.1.3,59.997389993531314,2026-05-12 10h14.19.485922 -0700,
GR_Congruent_RedCue_RedProbe_Top,GreenGaborBoth.png,RedGaborBoth.png,GreenGaborBoth.png,RedGaborDisappearTop.png,Red.mp3,red,top,129,49,1,,,,1,49,129,56,2301.9044612499997,,,,,,,,,,,,,,,,top,,,,,,,,2301.8905779579995,2302.921571083,2302.921739375,2308.171295167,2308.1776036670003,2309.421369458,2309.4229975000003,2310.438369958,2310.439427625,2311.8054655,mostlyred,FinalRedContrast,FinalGreenContrast,2311.806485083,2313.1888017919996,5,051226kg,001,2026-05-12_10h14.19.149,priming,,2026.1.3,59.997389993531314,2026-05-12 10h14.19.485922 -0700,
GR_Incongruent_GreenCue_RedProbe_Bottom,GreenGaborBoth.png,RedGaborBoth.png,GreenGaborBoth.png,RedGaborDisappearBottom.png,Green.mp3,green,bottom,130,50,1,,,,1,50,130,23,2313.2045202080003,,,,,,,,,,,,,,,,bottom,,,,,,,,2313.1906800419997,2313.8382504999995,2313.83841575,2319.08793825,2319.094261625,2320.3379946669997,2320.3395203329997,2321.35523425,2321.3560935419996,2323.005370542,mostlyred,FinalRedContrast,FinalGreenContrast,2323.0065024169994,2325.0725597919995,5,051226kg,001,2026-05-12_10h14.19.149,priming,,2026.1.3,59.997389993531314,2026-05-12 10h14.19.485922 -0700,
GR_Incongruent_RedCue_GreenProbe_Bottom,GreenGaborBoth.png,RedGaborBoth.png,GreenGaborDisappearBottom.png,RedGaborBoth.png,Red.mp3,red,bottom,131,51,1,,,,1,51,131,53,2325.087930542,,,,,,,,,,,,,,,,bottom,,,,,,,,2325.0741154169996,2325.7050035830002,2325.7051746249995,2330.9547377080003,2330.961109542,2332.2046815829995,2332.2059061249997,2333.7718449999998,2333.7731535,2337.072526333,evensplit,FinalRedContrast,FinalGreenContrast,2337.0728049169998,2338.5221794169997,5,051226kg,001,2026-05-12_10h14.19.149,priming,,2026.1.3,59.997389993531314,2026-05-12 10h14.19.485922 -0700,
GR_Incongruent_RedCue_GreenProbe_Top,GreenGaborBoth.png,RedGaborBoth.png,GreenGaborDisappearTop.png,RedGaborBoth.png,Red.mp3,red,top,132,52,1,,,,1,52,132,28,2338.537941708,,,,,,,,,,,,,,,,top,,,,,,,,2338.522275,2339.1383017499998,2339.138462958,2344.3880858749994,2344.39442475,2345.6381820829997,2345.6398072919997,2347.27187575,2347.272615083,2349.056017667,mostlyred,FinalRedContrast,FinalGreenContrast,2349.056336833,2349.6056462499996,5,051226kg,001,2026-05-12_10h14.19.149,priming,,2026.1.3,59.997389993531314,2026-05-12 10h14.19.485922 -0700,
GR_Congruent_GreenCue_GreenProbe_Top,GreenGaborBoth.png,RedGaborBoth.png,GreenGaborDisappearTop.png,RedGaborBoth.png,Green.mp3,green,top,133,53,1,,,,1,53,133,66,2349.621367583,,,,,,,,,,,,,,,,top,,,,,,,,2349.6076216669994,2350.071787792,2350.0719512499995,2355.321387042,2355.3276650000003,2356.571429667,2356.5729343749995,2357.3718881669997,2357.3734546250002,2358.0222354579996,allgreen,FinalRedContrast,FinalGreenContrast,2358.0233609579996,2358.9389095829997,5,051226kg,001,2026-05-12_10h14.19.149,priming,,2026.1.3,59.997389993531314,2026-05-12 10h14.19.485922 -0700,
GR_Incongruent_RedCue_GreenProbe_Top,GreenGaborBoth.png,RedGaborBoth.png,GreenGaborDisappearTop.png,RedGaborBoth.png,Red.mp3,red,top,134,54,1,,,,1,54,134,52,2358.954687375,,,,,,,,,,,,,,,,top,,,,,,,,2358.940562833,2359.3052316669996,2359.3053974580002,2364.5548898330003,2364.5611234579997,2365.804786125,2365.806641875,2367.3385874169994,2367.3395494579995,2368.138989083,mostlygreen,FinalRedContrast,FinalGreenContrast,2368.14030125,2368.7224028329997,5,051226kg,001,2026-05-12_10h14.19.149,priming,,2026.1.3,59.997389993531314,2026-05-12 10h14.19.485922 -0700,
