label,LstartingStim,RstartingStim,LvisualStim,RvisualStim,audioCue,visualCue,probe_loc,thisN,thisTrialN,thisRepN,staircase.thisTrialN,staircase.stepSize,staircase.intensity,trials.thisRepN,trials.thisTrialN,trials.thisN,trials.thisIndex,thisRow.t,notes,piloting,stim offset,continue_resp.keys,continue_resp.rt,continue_resp.duration,fixation.started,fixation.stopped,greenContrast,redContrast,adjusted_contrast.started,adjusted_contrast.stopped,staircase_response.started,staircase_response.stopped,stair_response,probe_response,staircase.response,prevTrial,isRed,isReversal,cumReversal,contrastArray,contrastAverage,start_trial.started,start_trial.stopped,cue.started,cue.stopped,probe.started,probe.stopped,probe_response.started,probe_response.stopped,subjective_response.started,subjective_response.stopped,subj_response,RedContrast,GreenContrast,vividness_response.started,vividness_response.stopped,vivid_response,participant,session,date,expName,expVersion,psychopyVersion,frameRate,expStart,
,,,,,,,,,,,,,,,,,,,,False,0.389,,,,,,,,,,,,,,,,,,,,,,,,,,,,,,,,,,,,,260406oj,001,2026-05-06_14h33.48.294,priming,,2026.1.3,60.0069756909023,2026-05-06 14h33.48.732247 -0700,
,,,,,,,,,,,,,,,,,,,,,,space,4.376169542000014,None,,,,,,,,,,,,,,,,,,,,,,,,,,,,,,,,,,260406oj,001,2026-05-06_14h33.48.294,priming,,2026.1.3,60.0069756909023,2026-05-06 14h33.48.732247 -0700,
,,,,,,,,,,,0,0.2,0.5,,,,,32.266897874999984,,,,,,,32.251477083,33.250320708000004,0.5,0.5,33.26823483299998,35.01706695799999,35.02600949999999,39.91805383299999,allgreen,green,0,1000,0,0,0,[],0,,,,,,,,,,,,,,,,,260406oj,001,2026-05-06_14h33.48.294,priming,,2026.1.3,60.0069756909023,2026-05-06 14h33.48.732247 -0700,
,,,,,,,,,,,1,0.1,0.7,,,,,39.93370725,,,,,,,39.91856620799999,40.917334541,0.30000000000000004,0.7,40.921899916,42.66718420799998,42.668934207999996,44.834589540999986,allred,red,1,0,1,1,1,[],0,,,,,,,,,,,,,,,,,260406oj,001,2026-05-06_14h33.48.294,priming,,2026.1.3,60.0069756909023,2026-05-06 14h33.48.732247 -0700,
,,,,,,,,,,,2,0.1,0.6,,,,,44.850328665999996,,,,,,,44.834886041000004,45.83371733299998,0.4,0.6,45.838653540999985,47.58396033299999,47.585907625000004,49.701142540999996,allred,red,1,1,1,0,1,[],0,,,,,,,,,,,,,,,,,260406oj,001,2026-05-06_14h33.48.294,priming,,2026.1.3,60.0069756909023,2026-05-06 14h33.48.732247 -0700,
,,,,,,,,,,,3,0.1,0.5,,,,,49.71701525,,,,,,,49.70155,50.700510665999985,0.5,0.5,50.705043665999995,52.45046170799998,52.45260583299998,54.71786045799999,mostlyred,red,1,1,1,0,1,[],0,,,,,,,,,,,,,,,,,260406oj,001,2026-05-06_14h33.48.294,priming,,2026.1.3,60.0069756909023,2026-05-06 14h33.48.732247 -0700,
,,,,,,,,,,,4,0.1,0.4,,,,,54.733725540999984,,,,,,,54.718167333,55.717117833,0.6,0.4,55.722303208,57.46709566599998,57.46899045799998,58.40123383299999,allgreen,green,0,1,0,1,2,[],0,,,,,,,,,,,,,,,,,260406oj,001,2026-05-06_14h33.48.294,priming,,2026.1.3,60.0069756909023,2026-05-06 14h33.48.732247 -0700,
,,,,,,,,,,,5,0.1,0.5,,,,,58.41710379099999,,,,,,,58.401508665999984,59.400467040999985,0.5,0.5,59.40398049999999,61.15048895799998,61.15260779099998,62.801319207999995,mostlygreen,green,0,0,0,0,2,[],0,,,,,,,,,,,,,,,,,260406oj,001,2026-05-06_14h33.48.294,priming,,2026.1.3,60.0069756909023,2026-05-06 14h33.48.732247 -0700,
,,,,,,,,,,,6,0.05,0.6,,,,,62.81716983299998,,,,,,,62.80170529099999,63.80041312499998,0.4,0.6,63.804186208000004,65.550680583,65.55121345799998,67.83461591599999,mostlyred,red,1,0,1,1,3,[],0,,,,,,,,,,,,,,,,,260406oj,001,2026-05-06_14h33.48.294,priming,,2026.1.3,60.0069756909023,2026-05-06 14h33.48.732247 -0700,
,,,,,,,,,,,7,0.05,0.5499999999999999,,,,,67.85040858299999,,,,,,,67.834943541,68.83379975,0.45000000000000007,0.5499999999999999,68.83761725,70.58383749999999,70.58562091599998,73.551356583,mostlyred,red,1,1,1,0,3,[],0,,,,,,,,,,,,,,,,,260406oj,001,2026-05-06_14h33.48.294,priming,,2026.1.3,60.0069756909023,2026-05-06 14h33.48.732247 -0700,
,,,,,,,,,,,8,0.05,0.49999999999999994,,,,,73.567082083,,,,,,,73.55162033299999,74.55052008299998,0.5,0.49999999999999994,74.554275166,76.30081266599998,76.302212416,77.36803804099998,mostlyred,red,1,1,1,0,3,[],0,,,,,,,,,,,,,,,,,260406oj,001,2026-05-06_14h33.48.294,priming,,2026.1.3,60.0069756909023,2026-05-06 14h33.48.732247 -0700,
,,,,,,,,,,,9,0.05,0.44999999999999996,,,,,77.383772666,,,,,,,77.368440875,78.367272375,0.55,0.44999999999999996,78.372484958,80.11722529099998,80.118858416,81.71806287499999,mostlygreen,green,0,1,0,1,4,[],0,,,,,,,,,,,,,,,,,260406oj,001,2026-05-06_14h33.48.294,priming,,2026.1.3,60.0069756909023,2026-05-06 14h33.48.732247 -0700,
,,,,,,,,,,,10,0.025,0.49999999999999994,,,,,81.73374141599999,,,,,,,81.71834191599999,82.71716924999998,0.5,0.49999999999999994,82.72125504099998,84.46736445799999,84.46880374999998,85.40163525,mostlyred,red,1,0,1,1,5,[],0,,,,,,,,,,,,,,,,,260406oj,001,2026-05-06_14h33.48.294,priming,,2026.1.3,60.0069756909023,2026-05-06 14h33.48.732247 -0700,
,,,,,,,,,,,11,0.025,0.4749999999999999,,,,,85.417220375,,,,,,,85.402164916,86.40064258299998,0.5250000000000001,0.4749999999999999,86.404676083,88.15063774999999,88.15221862499999,90.268204583,mostlyred,red,1,1,1,0,5,[],0,,,,,,,,,,,,,,,,,260406oj,001,2026-05-06_14h33.48.294,priming,,2026.1.3,60.0069756909023,2026-05-06 14h33.48.732247 -0700,
,,,,,,,,,,,12,0.025,0.4499999999999999,,,,,90.28388425,,,,,,,90.26850641599998,91.26737229099999,0.55,0.4499999999999999,91.271676958,93.01740208299998,93.018898541,94.818159125,mostlygreen,green,0,1,0,1,6,[0.4499999999999999],0.4499999999999999,,,,,,,,,,,,,,,,,260406oj,001,2026-05-06_14h33.48.294,priming,,2026.1.3,60.0069756909023,2026-05-06 14h33.48.732247 -0700,
,,,,,,,,,,,13,0.025,0.4749999999999999,,,,,94.83386079099998,,,,,,,94.81845562499998,95.817357458,0.5250000000000001,0.4749999999999999,95.821312708,97.56747370799997,97.56870495800001,99.16823379099998,mostlyred,red,1,0,1,1,7,"[0.4499999999999999, 0.4749999999999999]",0.4624999999999999,,,,,,,,,,,,,,,,,260406oj,001,2026-05-06_14h33.48.294,priming,,2026.1.3,60.0069756909023,2026-05-06 14h33.48.732247 -0700,
,,,,,,,,,,,14,0.025,0.4499999999999999,,,,,99.18389724999997,,,,,,,99.16867808299997,100.167348791,0.55,0.4499999999999999,100.17138558300002,101.91731004100001,101.919280125,103.40157675,mostlyred,red,1,1,1,0,7,"[0.4499999999999999, 0.4749999999999999]",0.4624999999999999,,,,,,,,,,,,,,,,,260406oj,001,2026-05-06_14h33.48.294,priming,,2026.1.3,60.0069756909023,2026-05-06 14h33.48.732247 -0700,
,,,,,,,,,,,15,0.025,0.4249999999999999,,,,,103.41721658299997,,,,,,,103.40192000000002,104.40065333299998,0.5750000000000002,0.4249999999999999,104.40567383299998,106.15066241599999,106.15228074999999,108.25149729099996,mostlyred,red,1,1,1,0,7,"[0.4499999999999999, 0.4749999999999999]",0.4624999999999999,,,,,,,,,,,,,,,,,260406oj,001,2026-05-06_14h33.48.294,priming,,2026.1.3,60.0069756909023,2026-05-06 14h33.48.732247 -0700,
,,,,,,,,,,,16,0.025,0.39999999999999986,,,,,108.26721670799998,,,,,,,108.25179383299997,109.25065362499998,0.6000000000000001,0.39999999999999986,109.254762083,111.00063279099999,111.00254083300001,112.268175708,mostlygreen,green,0,1,0,1,8,"[0.4499999999999999, 0.4749999999999999, 0.39999999999999986]",0.4416666666666666,,,,,,,,,,,,,,,,,260406oj,001,2026-05-06_14h33.48.294,priming,,2026.1.3,60.0069756909023,2026-05-06 14h33.48.732247 -0700,
,,,,,,,,,,,17,0.025,0.4249999999999999,,,,,112.28391637499999,,,,,,,112.26849025000001,113.26732679100002,0.5750000000000002,0.4249999999999999,113.271150041,115.01740391599998,115.01888124999999,116.50246099999998,mostlygreen,green,0,0,0,0,8,"[0.4499999999999999, 0.4749999999999999, 0.39999999999999986]",0.4416666666666666,,,,,,,,,,,,,,,,,260406oj,001,2026-05-06_14h33.48.294,priming,,2026.1.3,60.0069756909023,2026-05-06 14h33.48.732247 -0700,
,,,,,,,,,,,18,0.025,0.4499999999999999,,,,,116.517266458,,,,,,,116.502989625,117.500770166,0.55,0.4499999999999999,117.5054245,119.25065124999998,119.25232887499999,121.702118208,mostlyred,red,1,0,1,1,9,"[0.4499999999999999, 0.4749999999999999, 0.39999999999999986, 0.4499999999999999]",0.4437499999999999,,,,,,,,,,,,,,,,,260406oj,001,2026-05-06_14h33.48.294,priming,,2026.1.3,60.0069756909023,2026-05-06 14h33.48.732247 -0700,
,,,,,,,,,,,19,0.025,0.4249999999999999,,,,,121.71719024999999,,,,,,,121.70241483299998,122.70071420799997,0.5750000000000002,0.4249999999999999,122.70578695799998,124.45074045799998,124.45207595799997,126.10155262500001,mostlygreen,green,0,1,0,1,10,"[0.4499999999999999, 0.4749999999999999, 0.39999999999999986, 0.4499999999999999, 0.4249999999999999]",0.43999999999999995,,,,,,,,,,,,,,,,,260406oj,001,2026-05-06_14h33.48.294,priming,,2026.1.3,60.0069756909023,2026-05-06 14h33.48.732247 -0700,
,,,,,,,,,,,20,0.025,0.4499999999999999,,,,,126.11729045800001,,,,,,,126.10184687499998,127.10062895800002,0.55,0.4499999999999999,127.10473704099996,128.850783916,128.852228458,130.135258041,mostlyred,red,1,0,1,1,11,"[0.4499999999999999, 0.4749999999999999, 0.39999999999999986, 0.4499999999999999, 0.4249999999999999, 0.4499999999999999]",0.4416666666666666,,,,,,,,,,,,,,,,,260406oj,001,2026-05-06_14h33.48.294,priming,,2026.1.3,60.0069756909023,2026-05-06 14h33.48.732247 -0700,
,,,,,,,,,,,21,0.025,0.4249999999999999,,,,,130.15055795799998,,,,,,,130.13576829099998,131.13397804099998,0.5750000000000002,0.4249999999999999,131.13811875,132.883965541,132.8856995,133.3848595,mostlyred,red,1,1,1,0,11,"[0.4499999999999999, 0.4749999999999999, 0.39999999999999986, 0.4499999999999999, 0.4249999999999999, 0.4499999999999999]",0.4416666666666666,,,,,,,,,,,,,,,,,260406oj,001,2026-05-06_14h33.48.294,priming,,2026.1.3,60.0069756909023,2026-05-06 14h33.48.732247 -0700,
,,,,,,,,,,,22,0.025,0.39999999999999986,,,,,133.40056629100002,,,,,,,133.385137833,134.38398204099997,0.6000000000000001,0.39999999999999986,134.38782099999997,136.13404237499998,136.135532083,136.968238708,mostlygreen,green,0,1,0,1,12,"[0.4499999999999999, 0.4749999999999999, 0.39999999999999986, 0.4499999999999999, 0.4249999999999999, 0.4499999999999999, 0.39999999999999986]",0.4357142857142856,,,,,,,,,,,,,,,,,260406oj,001,2026-05-06_14h33.48.294,priming,,2026.1.3,60.0069756909023,2026-05-06 14h33.48.732247 -0700,
,,,,,,,,,,,23,0.025,0.4249999999999999,,,,,136.983875083,,,,,,,136.968512375,137.96737770800001,0.5750000000000002,0.4249999999999999,137.971643416,139.71732816600002,139.71934191600002,144.28484229100002,mostlygreen,green,0,0,0,0,12,"[0.4499999999999999, 0.4749999999999999, 0.39999999999999986, 0.4499999999999999, 0.4249999999999999, 0.4499999999999999, 0.39999999999999986]",0.4357142857142856,,,,,,,,,,,,,,,,,260406oj,001,2026-05-06_14h33.48.294,priming,,2026.1.3,60.0069756909023,2026-05-06 14h33.48.732247 -0700,
,,,,,,,,,,,24,0.025,0.4499999999999999,,,,,144.30053983300002,,,,,,,144.28538033299998,145.284065875,0.55,0.4499999999999999,145.290904625,147.033980541,147.03550754100002,148.868137666,mostlygreen,green,0,0,0,0,12,"[0.4499999999999999, 0.4749999999999999, 0.39999999999999986, 0.4499999999999999, 0.4249999999999999, 0.4499999999999999, 0.39999999999999986]",0.4357142857142856,,,,,,,,,,,,,,,,,260406oj,001,2026-05-06_14h33.48.294,priming,,2026.1.3,60.0069756909023,2026-05-06 14h33.48.732247 -0700,
,,,,,,,,,,,25,0.025,0.4749999999999999,,,,,148.88392383299998,,,,,,,148.868435875,149.86731637499997,0.5250000000000001,0.4749999999999999,149.8714395,151.6173685,151.619072583,152.70223699999997,mostlygreen,green,0,0,0,0,12,"[0.4499999999999999, 0.4749999999999999, 0.39999999999999986, 0.4499999999999999, 0.4249999999999999, 0.4499999999999999, 0.39999999999999986]",0.4357142857142856,,,,,,,,,,,,,,,,,260406oj,001,2026-05-06_14h33.48.294,priming,,2026.1.3,60.0069756909023,2026-05-06 14h33.48.732247 -0700,
,,,,,,,,,,,26,0.025,0.49999999999999994,,,,,152.717235125,,,,,,,152.70257549999997,153.700628333,0.5,0.49999999999999994,153.70434529099998,155.45072012499998,155.452304125,156.53486733299997,mostlyred,red,1,0,1,1,13,"[0.4499999999999999, 0.4749999999999999, 0.39999999999999986, 0.4499999999999999, 0.4249999999999999, 0.4499999999999999, 0.39999999999999986, 0.49999999999999994]",0.4437499999999999,,,,,,,,,,,,,,,,,260406oj,001,2026-05-06_14h33.48.294,priming,,2026.1.3,60.0069756909023,2026-05-06 14h33.48.732247 -0700,
,,,,,,,,,,,27,0.025,0.4749999999999999,,,,,156.550603458,,,,,,,156.53523387500002,157.534005583,0.5250000000000001,0.4749999999999999,157.53875883299997,159.28397187499996,159.28596145799997,160.26812608299997,mostlygreen,green,0,1,0,1,14,"[0.4499999999999999, 0.4749999999999999, 0.39999999999999986, 0.4499999999999999, 0.4249999999999999, 0.4499999999999999, 0.39999999999999986, 0.49999999999999994, 0.4749999999999999]",0.4472222222222222,,,,,,,,,,,,,,,,,260406oj,001,2026-05-06_14h33.48.294,priming,,2026.1.3,60.0069756909023,2026-05-06 14h33.48.732247 -0700,
,,,,,,,,,,,28,0.025,0.49999999999999994,,,,,160.283854125,,,,,,,160.2684585,161.267345541,0.5,0.49999999999999994,161.271554875,163.01744333300002,163.019159625,165.85157216599998,mostlyred,red,1,0,1,1,15,"[0.4499999999999999, 0.4749999999999999, 0.39999999999999986, 0.4499999999999999, 0.4249999999999999, 0.4499999999999999, 0.39999999999999986, 0.49999999999999994, 0.4749999999999999, 0.49999999999999994]",0.45249999999999996,,,,,,,,,,,,,,,,,260406oj,001,2026-05-06_14h33.48.294,priming,,2026.1.3,60.0069756909023,2026-05-06 14h33.48.732247 -0700,
,,,,,,,,,,,29,0.025,0.4749999999999999,,,,,165.867211,,,,,,,165.851968333,166.850635083,0.5250000000000001,0.4749999999999999,166.856147958,168.60064995800002,168.6024825,169.251472083,mostlyred,red,1,1,1,0,15,"[0.4499999999999999, 0.4749999999999999, 0.39999999999999986, 0.4499999999999999, 0.4249999999999999, 0.4499999999999999, 0.39999999999999986, 0.49999999999999994, 0.4749999999999999, 0.49999999999999994]",0.45249999999999996,,,,,,,,,,,,,,,,,260406oj,001,2026-05-06_14h33.48.294,priming,,2026.1.3,60.0069756909023,2026-05-06 14h33.48.732247 -0700,
,,,,,,,,,,,30,0.025,0.4499999999999999,,,,,169.26721475,,,,,,,169.251740708,170.2507225,0.55,0.4499999999999999,170.25450108299998,172.0007215,172.002388833,172.801515291,mostlygreen,green,0,1,0,1,16,"[0.4499999999999999, 0.4749999999999999, 0.39999999999999986, 0.4499999999999999, 0.4249999999999999, 0.4499999999999999, 0.39999999999999986, 0.49999999999999994, 0.4749999999999999, 0.49999999999999994, 0.4499999999999999]",0.4522727272727272,,,,,,,,,,,,,,,,,260406oj,001,2026-05-06_14h33.48.294,priming,,2026.1.3,60.0069756909023,2026-05-06 14h33.48.732247 -0700,
,,,,,,,,,,,31,0.025,0.4749999999999999,,,,,172.817297375,,,,,,,172.80182137499997,173.800740416,0.5250000000000001,0.4749999999999999,173.804610583,175.550743833,175.552161833,176.519040583,mostlyred,red,1,0,1,1,17,"[0.4499999999999999, 0.4749999999999999, 0.39999999999999986, 0.4499999999999999, 0.4249999999999999, 0.4499999999999999, 0.39999999999999986, 0.49999999999999994, 0.4749999999999999, 0.49999999999999994, 0.4499999999999999, 0.4749999999999999]",0.4541666666666666,,,,,,,,,,,,,,,,,260406oj,001,2026-05-06_14h33.48.294,priming,,2026.1.3,60.0069756909023,2026-05-06 14h33.48.732247 -0700,
,,,,,,,,,,,32,0.025,0.4499999999999999,,,,,176.53393645799997,,,,,,,176.519405291,177.51738645799998,0.55,0.4499999999999999,177.52196112500002,179.267377916,179.269119208,181.051474041,mostlygreen,green,0,1,0,1,18,"[0.4499999999999999, 0.4749999999999999, 0.39999999999999986, 0.4499999999999999, 0.4249999999999999, 0.4499999999999999, 0.39999999999999986, 0.49999999999999994, 0.4749999999999999, 0.49999999999999994, 0.4499999999999999, 0.4749999999999999, 0.4499999999999999]",0.4538461538461538,,,,,,,,,,,,,,,,,260406oj,001,2026-05-06_14h33.48.294,priming,,2026.1.3,60.0069756909023,2026-05-06 14h33.48.732247 -0700,
,,,,,,,,,,,33,0.025,0.4749999999999999,,,,,181.067179916,,,,,,,181.051765,182.05066175000002,0.5250000000000001,0.4749999999999999,182.05600820799998,183.80075483299998,183.804457458,185.502086958,mostlygreen,green,0,0,0,0,18,"[0.4499999999999999, 0.4749999999999999, 0.39999999999999986, 0.4499999999999999, 0.4249999999999999, 0.4499999999999999, 0.39999999999999986, 0.49999999999999994, 0.4749999999999999, 0.49999999999999994, 0.4499999999999999, 0.4749999999999999, 0.4499999999999999]",0.4538461538461538,,,,,,,,,,,,,,,,,260406oj,001,2026-05-06_14h33.48.294,priming,,2026.1.3,60.0069756909023,2026-05-06 14h33.48.732247 -0700,
,,,,,,,,,,,34,0.025,0.49999999999999994,,,,,185.517282625,,,,,,,185.50254137499996,186.501227208,0.5,0.49999999999999994,186.50555708299999,188.250630875,188.252253291,188.9682345,mostlyred,red,1,0,1,1,19,"[0.4499999999999999, 0.4749999999999999, 0.39999999999999986, 0.4499999999999999, 0.4249999999999999, 0.4499999999999999, 0.39999999999999986, 0.49999999999999994, 0.4749999999999999, 0.49999999999999994, 0.4499999999999999, 0.4749999999999999, 0.4499999999999999, 0.49999999999999994]",0.45714285714285713,,,,,,,,,,,,,,,,,260406oj,001,2026-05-06_14h33.48.294,priming,,2026.1.3,60.0069756909023,2026-05-06 14h33.48.732247 -0700,
,,,,,,,,,,,35,0.025,0.4749999999999999,,,,,188.98386625,,,,,,,188.9685645,189.967321916,0.5250000000000001,0.4749999999999999,189.97101129099997,191.71734229099997,191.718971333,192.78481079099998,mostlyred,red,1,1,1,0,19,"[0.4499999999999999, 0.4749999999999999, 0.39999999999999986, 0.4499999999999999, 0.4249999999999999, 0.4499999999999999, 0.39999999999999986, 0.49999999999999994, 0.4749999999999999, 0.49999999999999994, 0.4499999999999999, 0.4749999999999999, 0.4499999999999999, 0.49999999999999994]",0.45714285714285713,,,,,,,,,,,,,,,,,260406oj,001,2026-05-06_14h33.48.294,priming,,2026.1.3,60.0069756909023,2026-05-06 14h33.48.732247 -0700,
,,,,,,,,,,,36,0.025,0.4499999999999999,,,,,192.80053866599997,,,,,,,192.785150208,193.7840185,0.55,0.4499999999999999,193.78780341599997,195.53401837500002,195.535841291,196.98500033300002,mostlyred,red,1,1,1,0,19,"[0.4499999999999999, 0.4749999999999999, 0.39999999999999986, 0.4499999999999999, 0.4249999999999999, 0.4499999999999999, 0.39999999999999986, 0.49999999999999994, 0.4749999999999999, 0.49999999999999994, 0.4499999999999999, 0.4749999999999999, 0.4499999999999999, 0.49999999999999994]",0.45714285714285713,,,,,,,,,,,,,,,,,260406oj,001,2026-05-06_14h33.48.294,priming,,2026.1.3,60.0069756909023,2026-05-06 14h33.48.732247 -0700,
,,,,,,,,,,,37,0.025,0.4249999999999999,,,,,197.000536791,,,,,,,196.98526620799998,197.984176833,0.5750000000000002,0.4249999999999999,197.988950375,199.734034958,199.735733666,200.36797370799997,mostlyred,red,1,1,1,0,19,"[0.4499999999999999, 0.4749999999999999, 0.39999999999999986, 0.4499999999999999, 0.4249999999999999, 0.4499999999999999, 0.39999999999999986, 0.49999999999999994, 0.4749999999999999, 0.49999999999999994, 0.4499999999999999, 0.4749999999999999, 0.4499999999999999, 0.49999999999999994]",0.45714285714285713,,,,,,,,,,,,,,,,,260406oj,001,2026-05-06_14h33.48.294,priming,,2026.1.3,60.0069756909023,2026-05-06 14h33.48.732247 -0700,
,,,,,,,,,,,38,0.025,0.39999999999999986,,,,,200.383799916,,,,,,,200.368499541,201.367267125,0.6000000000000001,0.39999999999999986,201.37147329099997,203.11722604099998,203.11907804099997,204.71798291599998,mostlygreen,green,0,1,0,1,20,"[0.4499999999999999, 0.4749999999999999, 0.39999999999999986, 0.4499999999999999, 0.4249999999999999, 0.4499999999999999, 0.39999999999999986, 0.49999999999999994, 0.4749999999999999, 0.49999999999999994, 0.4499999999999999, 0.4749999999999999, 0.4499999999999999, 0.49999999999999994, 0.39999999999999986]",0.45333333333333325,,,,,,,,,,,,,,,,,260406oj,001,2026-05-06_14h33.48.294,priming,,2026.1.3,60.0069756909023,2026-05-06 14h33.48.732247 -0700,
,,,,,,,,,,,39,0.025,0.4249999999999999,,,,,204.733836375,,,,,,,204.71830154100002,205.71730520799997,0.5750000000000002,0.4249999999999999,205.721074708,207.467252041,207.46938662499997,208.7345785,mostlygreen,green,0,0,0,0,20,"[0.4499999999999999, 0.4749999999999999, 0.39999999999999986, 0.4499999999999999, 0.4249999999999999, 0.4499999999999999, 0.39999999999999986, 0.49999999999999994, 0.4749999999999999, 0.49999999999999994, 0.4499999999999999, 0.4749999999999999, 0.4499999999999999, 0.49999999999999994, 0.39999999999999986]",0.45333333333333325,,,,,,,,,,,,,,,,,260406oj,001,2026-05-06_14h33.48.294,priming,,2026.1.3,60.0069756909023,2026-05-06 14h33.48.732247 -0700,
,,,,,,,,,,,,,,,,,,,,,,space,61.665478457999995,None,,,,,,,,,,,,,,,,,,,,,,,,,,,,,,,,,,260406oj,001,2026-05-06_14h33.48.294,priming,,2026.1.3,60.0069756909023,2026-05-06 14h33.48.732247 -0700,
GR_Congruent_GreenCue_GreenProbe_Bottom,GreenGaborBoth.png,RedGaborBoth.png,GreenGaborDisappearBottom.png,RedGaborBoth.png,Green.mp3,green,bottom,0,0,0,,,,0,0,0,11,270.533928791,,,,,,,,,,,,,,,,bottom,,,,,,,,270.504955,276.234358791,276.23454175,281.484178375,281.50243308299997,282.750662708,282.752428083,297.118984166,297.119659291,302.21819625,mostlygreen,FinalRedContrast,FinalGreenContrast,302.219588333,311.485969291,2,260406oj,001,2026-05-06_14h33.48.294,priming,,2026.1.3,60.0069756909023,2026-05-06 14h33.48.732247 -0700,
GR_Congruent_RedCue_RedProbe_Top,GreenGaborBoth.png,RedGaborBoth.png,GreenGaborBoth.png,RedGaborDisappearTop.png,Red.mp3,red,top,1,1,0,,,,0,1,1,64,311.500522666,,,,,,,,,,,,,,,,top,,,,,,,,311.490495333,318.901155083,318.901355458,324.150849,324.16312275,325.400885291,325.403102,331.351311166,331.35207216599997,333.218399833,mostlyred,FinalRedContrast,FinalGreenContrast,333.218998166,345.418380416,4,260406oj,001,2026-05-06_14h33.48.294,priming,,2026.1.3,60.0069756909023,2026-05-06 14h33.48.732247 -0700,
GR_Congruent_GreenCue_GreenProbe_Top,GreenGaborBoth.png,RedGaborBoth.png,GreenGaborDisappearTop.png,RedGaborBoth.png,Green.mp3,green,top,2,2,0,,,,0,2,2,10,345.434094625,,,,,,,,,,,,,,,,top,,,,,,,,345.421538875,346.984456041,346.984633458,352.23428654099996,352.267924708,353.51765312500004,353.5202505,356.10159116599993,356.102309375,358.53519366599994,mostlygreen,FinalRedContrast,FinalGreenContrast,358.53663404099996,362.2517675,3,260406oj,001,2026-05-06_14h33.48.294,priming,,2026.1.3,60.0069756909023,2026-05-06 14h33.48.732247 -0700,
GR_Incongruent_GreenCue_RedProbe_Top,GreenGaborBoth.png,RedGaborBoth.png,GreenGaborBoth.png,RedGaborDisappearTop.png,Green.mp3,green,top,3,3,0,,,,0,3,3,22,362.26760312499994,,,,,,,,,,,,,,,,top,,,,,,,,362.251890958,365.851372375,365.851573875,371.10101320800004,371.111615583,372.35093462500004,372.353007166,376.168075458,376.16948779099994,379.71857662499997,evensplit,FinalRedContrast,FinalGreenContrast,379.71918633300004,383.385113541,3,260406oj,001,2026-05-06_14h33.48.294,priming,,2026.1.3,60.0069756909023,2026-05-06 14h33.48.732247 -0700,
GR_Incongruent_GreenCue_RedProbe_Bottom,GreenGaborBoth.png,RedGaborBoth.png,GreenGaborBoth.png,RedGaborDisappearBottom.png,Green.mp3,green,bottom,4,4,0,,,,0,4,4,63,383.40092274999995,,,,,,,,,,,,,,,,bottom,,,,,,,,383.385403083,385.03459162499996,385.03478266599996,390.28427187499994,390.30487241599997,391.551025,391.55317387499997,395.25136629099995,395.252822541,397.30188691599994,evensplit,FinalRedContrast,FinalGreenContrast,397.302845208,401.068625666,3,260406oj,001,2026-05-06_14h33.48.294,priming,,2026.1.3,60.0069756909023,2026-05-06 14h33.48.732247 -0700,
GR_Congruent_RedCue_RedProbe_Bottom,GreenGaborBoth.png,RedGaborBoth.png,GreenGaborBoth.png,RedGaborDisappearBottom.png,Red.mp3,red,bottom,5,5,0,,,,0,5,5,17,401.08432974999994,,,,,,,,,,,,,,,,bottom,,,,,,,,401.07163720799997,409.43483670800003,409.43506416599996,414.68442945799995,414.694903166,415.93440587500004,415.93631833300003,419.851516458,419.85340125000005,421.485465,evensplit,FinalRedContrast,FinalGreenContrast,421.485807666,423.20193329100005,4,260406oj,001,2026-05-06_14h33.48.294,priming,,2026.1.3,60.0069756909023,2026-05-06 14h33.48.732247 -0700,
GR_Incongruent_GreenCue_RedProbe_Bottom,GreenGaborBoth.png,RedGaborBoth.png,GreenGaborBoth.png,RedGaborDisappearBottom.png,Green.mp3,green,bottom,6,6,0,,,,0,6,6,71,423.21768725000004,,,,,,,,,,,,,,,,bottom,,,,,,,,423.20487683299996,425.301609333,425.301786708,430.55115520799995,430.56222070800004,431.801079875,431.80291187499995,435.484862583,435.48654050000005,437.15188916600005,mostlyred,FinalRedContrast,FinalGreenContrast,437.15345208300005,453.385482958,3,260406oj,001,2026-05-06_14h33.48.294,priming,,2026.1.3,60.0069756909023,2026-05-06 14h33.48.732247 -0700,
GR_Incongruent_RedCue_GreenProbe_Top,GreenGaborBoth.png,RedGaborBoth.png,GreenGaborDisappearTop.png,RedGaborBoth.png,Red.mp3,red,top,7,7,0,,,,0,7,7,60,453.40111883299994,,,,,,,,,,,,,,,,top,,,,,,,,453.38880395800004,460.43490054100005,460.43510033300004,465.684568666,465.69703279099997,466.93455704099995,466.93723416599994,468.97194479099994,468.972218708,470.352045666,mostlygreen,FinalRedContrast,FinalGreenContrast,470.353056916,477.63539912499994,4,260406oj,001,2026-05-06_14h33.48.294,priming,,2026.1.3,60.0069756909023,2026-05-06 14h33.48.732247 -0700,
GR_Congruent_RedCue_RedProbe_Bottom,GreenGaborBoth.png,RedGaborBoth.png,GreenGaborBoth.png,RedGaborDisappearBottom.png,Red.mp3,red,bottom,8,8,0,,,,0,8,8,25,477.65111145799995,,,,,,,,,,,,,,,,bottom,,,,,,,,477.63572675,478.65197975,478.65219204100003,483.90118825,483.912281583,485.15122995800004,485.153529125,487.28496974999996,487.28594599999997,489.985364708,evensplit,FinalRedContrast,FinalGreenContrast,489.987133791,494.43552120799995,3,260406oj,001,2026-05-06_14h33.48.294,priming,,2026.1.3,60.0069756909023,2026-05-06 14h33.48.732247 -0700,
GR_Congruent_RedCue_RedProbe_Top,GreenGaborBoth.png,RedGaborBoth.png,GreenGaborBoth.png,RedGaborDisappearTop.png,Red.mp3,red,top,9,9,0,,,,0,9,9,16,494.451256083,,,,,,,,,,,,,,,,top,,,,,,,,494.435808166,495.901653291,495.90185554100003,501.151390416,501.162145583,502.40139145800003,502.403185583,505.951866041,505.953243458,509.735630916,mostlygreen,FinalRedContrast,FinalGreenContrast,509.73642874999996,513.002248958,3,260406oj,001,2026-05-06_14h33.48.294,priming,,2026.1.3,60.0069756909023,2026-05-06 14h33.48.732247 -0700,
GR_Congruent_RedCue_RedProbe_Bottom,GreenGaborBoth.png,RedGaborBoth.png,GreenGaborBoth.png,RedGaborDisappearBottom.png,Red.mp3,red,bottom,10,10,0,,,,0,10,10,57,513.018019083,,,,,,,,,,,,,,,,bottom,,,,,,,,513.002609083,514.901712333,514.901920875,520.151333375,520.162463333,521.401387708,521.403692083,523.06941025,523.069809875,524.9021425,mostlygreen,FinalRedContrast,FinalGreenContrast,524.903076375,528.002191083,4,260406oj,001,2026-05-06_14h33.48.294,priming,,2026.1.3,60.0069756909023,2026-05-06 14h33.48.732247 -0700,
GR_Congruent_RedCue_RedProbe_Bottom,GreenGaborBoth.png,RedGaborBoth.png,GreenGaborBoth.png,RedGaborDisappearBottom.png,Red.mp3,red,bottom,11,11,0,,,,0,11,11,33,528.017919291,,,,,,,,,,,,,,,,bottom,,,,,,,,528.002471583,532.568419916,532.568624833,537.81813425,537.8282017079999,539.068184208,539.07005975,541.90193,541.903707625,544.685704916,evensplit,FinalRedContrast,FinalGreenContrast,544.686668458,549.752324,4,260406oj,001,2026-05-06_14h33.48.294,priming,,2026.1.3,60.0069756909023,2026-05-06 14h33.48.732247 -0700,
GR_Incongruent_RedCue_GreenProbe_Bottom,GreenGaborBoth.png,RedGaborBoth.png,GreenGaborDisappearBottom.png,RedGaborBoth.png,Red.mp3,red,bottom,12,12,0,,,,0,12,12,13,549.768136125,,,,,,,,,,,,,,,,bottom,,,,,,,,549.753181625,551.268497458,551.268746708,556.5183170829999,556.528742666,557.768148708,557.770389791,564.368670875,564.369895791,567.052786375,mostlyred,FinalRedContrast,FinalGreenContrast,567.053488375,569.585680125,3,260406oj,001,2026-05-06_14h33.48.294,priming,,2026.1.3,60.0069756909023,2026-05-06 14h33.48.732247 -0700,
GR_Congruent_RedCue_RedProbe_Top,GreenGaborBoth.png,RedGaborBoth.png,GreenGaborBoth.png,RedGaborDisappearTop.png,Red.mp3,red,top,13,13,0,,,,0,13,13,56,569.601386916,,,,,,,,,,,,,,,,top,,,,,,,,569.586007416,572.285140375,572.285366416,577.53480625,577.545646208,578.784833458,578.786726208,580.652620666,580.6535014579999,583.80243,mostlygreen,FinalRedContrast,FinalGreenContrast,583.804174125,588.453079833,3,260406oj,001,2026-05-06_14h33.48.294,priming,,2026.1.3,60.0069756909023,2026-05-06 14h33.48.732247 -0700,
GR_Congruent_GreenCue_GreenProbe_Top,GreenGaborBoth.png,RedGaborBoth.png,GreenGaborDisappearTop.png,RedGaborBoth.png,Green.mp3,green,top,14,14,0,,,,0,14,14,2,588.468148958,,,,,,,,,,,,,,,,top,,,,,,,,588.456236583,597.55198825,597.552205125,602.801647041,602.811646583,604.051595666,604.053448958,607.602099333,607.603626375,608.9858405,allgreen,FinalRedContrast,FinalGreenContrast,608.9870015,616.569070791,3,260406oj,001,2026-05-06_14h33.48.294,priming,,2026.1.3,60.0069756909023,2026-05-06 14h33.48.732247 -0700,
GR_Incongruent_GreenCue_RedProbe_Top,GreenGaborBoth.png,RedGaborBoth.png,GreenGaborBoth.png,RedGaborDisappearTop.png,Green.mp3,green,top,15,15,0,,,,0,15,15,54,616.584931583,,,,,,,,,,,,,,,,top,,,,,,,,616.569394333,619.401890916,619.402123375,624.6515785,624.661657541,625.901584,625.904523916,627.335514416,627.336717666,630.2693164579999,allgreen,FinalRedContrast,FinalGreenContrast,630.270727833,633.019263708,4,260406oj,001,2026-05-06_14h33.48.294,priming,,2026.1.3,60.0069756909023,2026-05-06 14h33.48.732247 -0700,
GR_Incongruent_GreenCue_RedProbe_Bottom,GreenGaborBoth.png,RedGaborBoth.png,GreenGaborBoth.png,RedGaborDisappearBottom.png,Green.mp3,green,bottom,16,16,0,,,,0,16,16,7,633.034973083,,,,,,,,,,,,,,,,bottom,,,,,,,,633.019562791,634.435353208,634.435567458,639.685107375,639.694929,640.935046083,640.936987166,644.402139416,644.403820125,645.769233958,mostlygreen,FinalRedContrast,FinalGreenContrast,645.770654208,647.837050041,3,260406oj,001,2026-05-06_14h33.48.294,priming,,2026.1.3,60.0069756909023,2026-05-06 14h33.48.732247 -0700,
GR_Congruent_GreenCue_GreenProbe_Top,GreenGaborBoth.png,RedGaborBoth.png,GreenGaborDisappearTop.png,RedGaborBoth.png,Green.mp3,green,top,17,17,0,,,,0,17,17,66,647.851620208,,,,,,,,,,,,,,,,top,,,,,,,,647.837466458,653.585367916,653.585626583,658.835091125,658.846894208,660.085054083,660.086923458,662.052216375,662.053043208,663.685861333,allgreen,FinalRedContrast,FinalGreenContrast,663.687269708,666.552579125,3,260406oj,001,2026-05-06_14h33.48.294,priming,,2026.1.3,60.0069756909023,2026-05-06 14h33.48.732247 -0700,
GR_Incongruent_RedCue_GreenProbe_Top,GreenGaborBoth.png,RedGaborBoth.png,GreenGaborDisappearTop.png,RedGaborBoth.png,Red.mp3,red,top,18,18,0,,,,0,18,18,12,666.568305166,,,,,,,,,,,,,,,,top,,,,,,,,666.555368125,669.302037083,669.30222725,674.551931875,674.5618605,675.801879916,675.803789916,679.852325416,679.853149,681.802679958,allgreen,FinalRedContrast,FinalGreenContrast,681.803561666,683.83602575,4,260406oj,001,2026-05-06_14h33.48.294,priming,,2026.1.3,60.0069756909023,2026-05-06 14h33.48.732247 -0700,
GR_Incongruent_RedCue_GreenProbe_Top,GreenGaborBoth.png,RedGaborBoth.png,GreenGaborDisappearTop.png,RedGaborBoth.png,Red.mp3,red,top,19,19,0,,,,0,19,19,68,683.851754208,,,,,,,,,,,,,,,,top,,,,,,,,683.836501416,685.235919166,685.236135583,690.4853261659999,690.494239541,691.735235833,691.737012916,696.857046958,696.857445916,698.50273325,allgreen,FinalRedContrast,FinalGreenContrast,698.503603333,703.402732791,3,260406oj,001,2026-05-06_14h33.48.294,priming,,2026.1.3,60.0069756909023,2026-05-06 14h33.48.732247 -0700,
RR_non_riv_catch_RedCue_RedProbe_Top,Blank.png,RedGaborBoth.png,Blank.png,RedGaborDisappearTop.png,Red.mp3,red,top,20,20,0,,,,0,20,20,72,703.418418583,,,,,,,,,,,,,,,,top,,,,,,,,703.403057958,704.635540958,704.6357275,709.885180541,709.92099125,711.185197333,711.187079458,713.019083,713.019991,714.302746833,allred,FinalRedContrast,FinalGreenContrast,714.303919,717.936008791,4,260406oj,001,2026-05-06_14h33.48.294,priming,,2026.1.3,60.0069756909023,2026-05-06 14h33.48.732247 -0700,
GG_non_riv_catch_GreenCue_GreenProbe_Bottom,GreenGaborBoth.png,Blank.png,GreenGaborDisappearBottom.png,Blank.png,Green.mp3,green,bottom,21,21,0,,,,0,21,21,79,717.951759666,,,,,,,,,,,,,,,,bottom,,,,,,,,717.939254625,722.20232225,722.20251525,727.451968291,727.461256625,728.701982083,728.704202958,731.052475208,731.053191833,732.5028334579999,allgreen,FinalRedContrast,FinalGreenContrast,732.5043675,735.669454375,3,260406oj,001,2026-05-06_14h33.48.294,priming,,2026.1.3,60.0069756909023,2026-05-06 14h33.48.732247 -0700,
GR_Incongruent_RedCue_GreenProbe_Bottom,GreenGaborBoth.png,RedGaborBoth.png,GreenGaborDisappearBottom.png,RedGaborBoth.png,Red.mp3,red,bottom,22,22,0,,,,0,22,22,69,735.685235791,,,,,,,,,,,,,,,,bottom,,,,,,,,735.672193125,737.4856725,737.485862541,742.73543525,742.746124083,743.9853345829999,743.987093041,747.32091375,747.321274333,748.602838375,evensplit,FinalRedContrast,FinalGreenContrast,748.604132416,750.052875583,3,260406oj,001,2026-05-06_14h33.48.294,priming,,2026.1.3,60.0069756909023,2026-05-06 14h33.48.732247 -0700,
GR_Incongruent_GreenCue_RedProbe_Top,GreenGaborBoth.png,RedGaborBoth.png,GreenGaborBoth.png,RedGaborDisappearTop.png,Green.mp3,green,top,23,23,0,,,,0,23,23,14,750.068614708,,,,,,,,,,,,,,,,top,,,,,,,,750.055932833,750.968927041,750.969137791,756.21868025,756.228487166,757.4686490409999,757.47112625,758.619231208,758.6199541249999,760.102933083,allgreen,FinalRedContrast,FinalGreenContrast,760.103782125,766.669662,3,260406oj,001,2026-05-06_14h33.48.294,priming,,2026.1.3,60.0069756909023,2026-05-06 14h33.48.732247 -0700,
GR_Congruent_GreenCue_GreenProbe_Bottom,GreenGaborBoth.png,RedGaborBoth.png,GreenGaborDisappearBottom.png,RedGaborBoth.png,Green.mp3,green,bottom,24,24,0,,,,0,24,24,43,766.685350333,,,,,,,,,,,,,,,,bottom,,,,,,,,766.670033541,769.952399958,769.952605,775.202187625,775.213611958,776.452136375,776.455004958,779.085938125,779.087127041,781.46966375,allgreen,FinalRedContrast,FinalGreenContrast,781.4701965,784.202984458,3,260406oj,001,2026-05-06_14h33.48.294,priming,,2026.1.3,60.0069756909023,2026-05-06 14h33.48.732247 -0700,
GG_non_riv_catch_RedCue_GreenProbe_Bottom,GreenGaborBoth.png,Blank.png,GreenGaborDisappearBottom.png,Blank.png,Red.mp3,red,bottom,25,25,0,,,,0,25,25,77,784.2187024579999,,,,,,,,,,,,,,,,bottom,,,,,,,,784.2071922499999,785.403015791,785.403205541,790.652187083,790.66138625,791.902115541,791.904584833,794.285852458,794.287328083,795.8529673749999,allgreen,FinalRedContrast,FinalGreenContrast,795.85344875,798.819695541,3,260406oj,001,2026-05-06_14h33.48.294,priming,,2026.1.3,60.0069756909023,2026-05-06 14h33.48.732247 -0700,
RR_non_riv_catch_GreenCue_RedProbe_Top,Blank.png,RedGaborBoth.png,Blank.png,RedGaborDisappearTop.png,Green.mp3,green,top,26,26,0,,,,0,26,26,74,798.835332375,,,,,,,,,,,,,,,,top,,,,,,,,798.822795166,800.0858085,800.086004208,805.335646708,805.344569416,806.585430875,806.587264875,808.819323208,808.820372583,811.9364174579999,allred,FinalRedContrast,FinalGreenContrast,811.937722083,814.586413291,3,260406oj,001,2026-05-06_14h33.48.294,priming,,2026.1.3,60.0069756909023,2026-05-06 14h33.48.732247 -0700,
GR_Incongruent_GreenCue_RedProbe_Bottom,GreenGaborBoth.png,RedGaborBoth.png,GreenGaborBoth.png,RedGaborDisappearBottom.png,Green.mp3,green,bottom,27,27,0,,,,0,27,27,55,814.602138416,,,,,,,,,,,,,,,,bottom,,,,,,,,814.586694666,822.202851916,822.203108541,827.452230916,827.462890666,828.702332416,828.703822916,833.22015975,833.220983541,834.653069166,mostlygreen,FinalRedContrast,FinalGreenContrast,834.653535791,839.486467541,3,260406oj,001,2026-05-06_14h33.48.294,priming,,2026.1.3,60.0069756909023,2026-05-06 14h33.48.732247 -0700,
GR_Incongruent_RedCue_GreenProbe_Bottom,GreenGaborBoth.png,RedGaborBoth.png,GreenGaborDisappearBottom.png,RedGaborBoth.png,Red.mp3,red,bottom,28,28,0,,,,0,28,28,29,839.5021500409999,,,,,,,,,,,,,,,,bottom,,,,,,,,839.489529583,843.386002416,843.386195583,848.635779125,848.645325375,849.885639,849.88889325,856.053303125,856.054079583,856.969852708,mostlyred,FinalRedContrast,FinalGreenContrast,856.971282083,859.469893,4,260406oj,001,2026-05-06_14h33.48.294,priming,,2026.1.3,60.0069756909023,2026-05-06 14h33.48.732247 -0700,
GR_Incongruent_GreenCue_RedProbe_Bottom,GreenGaborBoth.png,RedGaborBoth.png,GreenGaborBoth.png,RedGaborDisappearBottom.png,Green.mp3,green,bottom,29,29,0,,,,0,29,29,47,859.485595458,,,,,,,,,,,,,,,,bottom,,,,,,,,859.47476675,863.102784458,863.102975958,868.352647958,868.366016958,869.619036,869.620844708,871.2589693749999,871.2593125410001,873.3032054580001,allgreen,FinalRedContrast,FinalGreenContrast,873.3046355409999,876.1365767909999,3,260406oj,001,2026-05-06_14h33.48.294,priming,,2026.1.3,60.0069756909023,2026-05-06 14h33.48.732247 -0700,
GR_Congruent_RedCue_RedProbe_Bottom,GreenGaborBoth.png,RedGaborBoth.png,GreenGaborBoth.png,RedGaborDisappearBottom.png,Red.mp3,red,bottom,30,30,0,,,,0,30,30,49,876.152256375,,,,,,,,,,,,,,,,bottom,,,,,,,,876.1407951660001,877.0860123749999,877.0861848750001,882.3357892910001,882.346028833,883.5856738330001,883.587799125,885.9361624159999,885.937579791,887.1032057499999,evensplit,FinalRedContrast,FinalGreenContrast,887.1044115,889.7865124580001,3,260406oj,001,2026-05-06_14h33.48.294,priming,,2026.1.3,60.0069756909023,2026-05-06 14h33.48.732247 -0700,
GR_Congruent_GreenCue_GreenProbe_Bottom,GreenGaborBoth.png,RedGaborBoth.png,GreenGaborDisappearBottom.png,RedGaborBoth.png,Green.mp3,green,bottom,31,31,0,,,,0,31,31,35,889.802271041,,,,,,,,,,,,,,,,bottom,,,,,,,,889.791823625,892.7360671659999,892.7362692500001,897.9858159160001,897.996900291,899.236055958,899.248132041,903.8699959579999,903.870679208,906.8033452079999,mostlygreen,FinalRedContrast,FinalGreenContrast,906.8046990830001,910.0700045409999,2,260406oj,001,2026-05-06_14h33.48.294,priming,,2026.1.3,60.0069756909023,2026-05-06 14h33.48.732247 -0700,
RR_non_riv_catch_RedCue_RedProbe_Bottom,Blank.png,RedGaborBoth.png,Blank.png,RedGaborDisappearBottom.png,Red.mp3,red,bottom,32,32,0,,,,0,32,32,73,910.0857673749999,,,,,,,,,,,,,,,,bottom,,,,,,,,910.0739746659999,918.402963791,918.403221708,923.652448666,923.661467333,924.9025454580001,924.904584833,930.819761708,930.820734416,933.5033194580001,allred,FinalRedContrast,FinalGreenContrast,933.504824375,936.286653458,4,260406oj,001,2026-05-06_14h33.48.294,priming,,2026.1.3,60.0069756909023,2026-05-06 14h33.48.732247 -0700,
GR_Incongruent_GreenCue_RedProbe_Bottom,GreenGaborBoth.png,RedGaborBoth.png,GreenGaborBoth.png,RedGaborDisappearBottom.png,Green.mp3,green,bottom,33,33,0,,,,0,33,33,39,936.3024311249999,,,,,,,,,,,,,,,,bottom,,,,,,,,936.2896653749999,937.4694715410001,937.4696430409999,942.71928075,942.7305972910001,943.9691614579999,943.972391083,945.502915,945.5042929159999,947.1866535409999,evensplit,FinalRedContrast,FinalGreenContrast,947.1881687499999,949.7200245829999,2,260406oj,001,2026-05-06_14h33.48.294,priming,,2026.1.3,60.0069756909023,2026-05-06 14h33.48.732247 -0700,
GR_Incongruent_GreenCue_RedProbe_Top,GreenGaborBoth.png,RedGaborBoth.png,GreenGaborBoth.png,RedGaborDisappearTop.png,Green.mp3,green,top,34,34,0,,,,0,34,34,38,949.735695416,,,,,,,,,,,,,,,,top,,,,,,,,949.7202246249999,951.102814375,951.102989208,956.352641166,956.361312833,957.602616458,957.60447725,960.7531423749999,960.7545486659999,963.1367741659999,evensplit,FinalRedContrast,FinalGreenContrast,963.138070583,964.736862875,3,260406oj,001,2026-05-06_14h33.48.294,priming,,2026.1.3,60.0069756909023,2026-05-06 14h33.48.732247 -0700,
GR_Incongruent_RedCue_GreenProbe_Bottom,GreenGaborBoth.png,RedGaborBoth.png,GreenGaborDisappearBottom.png,RedGaborBoth.png,Red.mp3,red,bottom,35,35,0,,,,0,35,35,37,964.7525262080001,,,,,,,,,,,,,,,,bottom,,,,,,,,964.7394770000001,965.686263416,965.6864492499999,970.9359735,970.9447223750001,972.186035125,972.1882222910001,975.21975225,975.2211049160001,976.770118875,evensplit,FinalRedContrast,FinalGreenContrast,976.771459541,978.270151083,3,260406oj,001,2026-05-06_14h33.48.294,priming,,2026.1.3,60.0069756909023,2026-05-06 14h33.48.732247 -0700,
GR_Incongruent_RedCue_GreenProbe_Bottom,GreenGaborBoth.png,RedGaborBoth.png,GreenGaborDisappearBottom.png,RedGaborBoth.png,Red.mp3,red,bottom,36,36,0,,,,0,36,36,5,978.2858550410001,,,,,,,,,,,,,,,,bottom,,,,,,,,978.2703401250001,987.8529840829999,987.8532276660001,993.102625833,993.1131343750001,994.3526127499999,994.354812458,997.321315208,997.321611291,1001.220304875,evensplit,FinalRedContrast,FinalGreenContrast,1001.220981041,1003.153669458,3,260406oj,001,2026-05-06_14h33.48.294,priming,,2026.1.3,60.0069756909023,2026-05-06 14h33.48.732247 -0700,
GR_Congruent_GreenCue_GreenProbe_Top,GreenGaborBoth.png,RedGaborBoth.png,GreenGaborDisappearTop.png,RedGaborBoth.png,Green.mp3,green,top,37,37,0,,,,0,37,37,50,1003.169369,,,,,,,,,,,,,,,,top,,,,,,,,1003.158849916,1004.26975225,1004.269938291,1009.5194658329999,1009.529747666,1010.7694349579999,1010.772189583,1013.7699035,1013.7714080830001,1014.7869062499999,evensplit,FinalRedContrast,FinalGreenContrast,1014.7883843330001,1019.0370149999999,2,260406oj,001,2026-05-06_14h33.48.294,priming,,2026.1.3,60.0069756909023,2026-05-06 14h33.48.732247 -0700,
GR_Congruent_GreenCue_GreenProbe_Bottom,GreenGaborBoth.png,RedGaborBoth.png,GreenGaborDisappearBottom.png,RedGaborBoth.png,Green.mp3,green,bottom,38,38,0,,,,0,38,38,59,1019.052680625,,,,,,,,,,,,,,,,bottom,,,,,,,,1019.037318166,1020.8697582079999,1020.8699691659999,1026.119448791,1026.129369416,1027.3694365,1027.371347291,1030.803237625,1030.803966666,1032.953593666,mostlygreen,FinalRedContrast,FinalGreenContrast,1032.954899583,1037.603984125,2,260406oj,001,2026-05-06_14h33.48.294,priming,,2026.1.3,60.0069756909023,2026-05-06 14h33.48.732247 -0700,
GR_Incongruent_GreenCue_RedProbe_Bottom,GreenGaborBoth.png,RedGaborBoth.png,GreenGaborBoth.png,RedGaborDisappearBottom.png,Green.mp3,green,bottom,39,39,0,,,,0,39,39,23,1037.619357125,,,,,,,,,,,,,,,,bottom,,,,,,,,1037.60426175,1038.619749708,1038.619946625,1043.869451541,1043.879846,1045.119501125,1045.121704791,1047.037959875,1047.038261041,1050.27040625,mostlygreen,FinalRedContrast,FinalGreenContrast,1050.27192875,1055.9703656249999,3,260406oj,001,2026-05-06_14h33.48.294,priming,,2026.1.3,60.0069756909023,2026-05-06 14h33.48.732247 -0700,
GR_Congruent_RedCue_RedProbe_Top,GreenGaborBoth.png,RedGaborBoth.png,GreenGaborBoth.png,RedGaborDisappearTop.png,Red.mp3,red,top,40,40,0,,,,0,40,40,0,1055.986198,,,,,,,,,,,,,,,,top,,,,,,,,1055.973413458,1057.653267,1057.653457375,1062.9029505,1062.913085833,1064.152890791,1064.15525125,1069.803466583,1069.804536416,1072.0037339579999,mostlygreen,FinalRedContrast,FinalGreenContrast,1072.004225125,1074.3370520409999,2,260406oj,001,2026-05-06_14h33.48.294,priming,,2026.1.3,60.0069756909023,2026-05-06 14h33.48.732247 -0700,
GR_Incongruent_RedCue_GreenProbe_Top,GreenGaborBoth.png,RedGaborBoth.png,GreenGaborDisappearTop.png,RedGaborBoth.png,Red.mp3,red,top,41,41,0,,,,0,41,41,28,1074.352777666,,,,,,,,,,,,,,,,top,,,,,,,,1074.337332708,1082.686520041,1082.686744666,1087.936197583,1087.946898208,1089.186314791,1089.188937291,1094.186681875,1094.187984583,1096.453837541,mostlyred,FinalRedContrast,FinalGreenContrast,1096.454743791,1106.987402833,3,260406oj,001,2026-05-06_14h33.48.294,priming,,2026.1.3,60.0069756909023,2026-05-06 14h33.48.732247 -0700,
GR_Incongruent_GreenCue_RedProbe_Top,GreenGaborBoth.png,RedGaborBoth.png,GreenGaborBoth.png,RedGaborDisappearTop.png,Green.mp3,green,top,42,42,0,,,,0,42,42,30,1107.002926458,,,,,,,,,,,,,,,,top,,,,,,,,1106.9906335,1108.119976583,1108.120173375,1113.369661708,1113.381273375,1114.6196835,1114.621528291,1117.020128333,1117.021809125,1117.620523083,evensplit,FinalRedContrast,FinalGreenContrast,1117.622116416,1120.020495208,3,260406oj,001,2026-05-06_14h33.48.294,priming,,2026.1.3,60.0069756909023,2026-05-06 14h33.48.732247 -0700,
GR_Congruent_GreenCue_GreenProbe_Bottom,GreenGaborBoth.png,RedGaborBoth.png,GreenGaborDisappearBottom.png,RedGaborBoth.png,Green.mp3,green,bottom,43,43,0,,,,0,43,43,3,1120.036257208,,,,,,,,,,,,,,,,bottom,,,,,,,,1120.020661875,1120.820043125,1120.8202362499999,1126.0696525,1126.078223916,1127.319803208,1127.321620875,1128.903523958,1128.9044886249999,1130.120529083,evensplit,FinalRedContrast,FinalGreenContrast,1130.121846625,1130.920485125,3,260406oj,001,2026-05-06_14h33.48.294,priming,,2026.1.3,60.0069756909023,2026-05-06 14h33.48.732247 -0700,
GR_Incongruent_GreenCue_RedProbe_Top,GreenGaborBoth.png,RedGaborBoth.png,GreenGaborBoth.png,RedGaborDisappearTop.png,Green.mp3,green,top,44,44,0,,,,0,44,44,62,1130.936251166,,,,,,,,,,,,,,,,top,,,,,,,,1130.920581375,1131.903361291,1131.903543666,1137.153144708,1137.162241375,1138.402985625,1138.40492525,1140.6041701249999,1140.604794541,1141.78747875,mostlygreen,FinalRedContrast,FinalGreenContrast,1141.787812541,1142.987780291,3,260406oj,001,2026-05-06_14h33.48.294,priming,,2026.1.3,60.0069756909023,2026-05-06 14h33.48.732247 -0700,
GR_Congruent_RedCue_RedProbe_Top,GreenGaborBoth.png,RedGaborBoth.png,GreenGaborBoth.png,RedGaborDisappearTop.png,Red.mp3,red,top,45,45,0,,,,0,45,45,24,1143.002934291,,,,,,,,,,,,,,,,top,,,,,,,,1142.990422958,1143.73663825,1143.736811791,1148.986487083,1148.994714916,1150.236533166,1150.238318666,1154.586907625,1154.5881414579999,1157.304028291,evensplit,FinalRedContrast,FinalGreenContrast,1157.305371291,1172.339613291,3,260406oj,001,2026-05-06_14h33.48.294,priming,,2026.1.3,60.0069756909023,2026-05-06 14h33.48.732247 -0700,
GR_Incongruent_GreenCue_RedProbe_Bottom,GreenGaborBoth.png,RedGaborBoth.png,GreenGaborBoth.png,RedGaborDisappearBottom.png,Green.mp3,green,bottom,46,46,0,,,,0,46,46,31,1172.352989083,,,,,,,,,,,,,,,,bottom,,,,,,,,1172.342773666,1175.4201203329999,1175.420321375,1180.669857916,1180.68031225,1181.919959916,1181.922834125,1184.536912916,1184.538414125,1187.237377666,mostlygreen,FinalRedContrast,FinalGreenContrast,1187.238707208,1188.354440916,3,260406oj,001,2026-05-06_14h33.48.294,priming,,2026.1.3,60.0069756909023,2026-05-06 14h33.48.732247 -0700,
GR_Congruent_GreenCue_GreenProbe_Bottom,GreenGaborBoth.png,RedGaborBoth.png,GreenGaborDisappearBottom.png,RedGaborBoth.png,Green.mp3,green,bottom,47,47,0,,,,0,47,47,51,1188.369727375,,,,,,,,,,,,,,,,bottom,,,,,,,,1188.354633833,1189.270114125,1189.270292916,1194.520007625,1194.531435875,1195.769939375,1195.7719440829999,1196.853789916,1196.855628458,1197.754103083,allgreen,FinalRedContrast,FinalGreenContrast,1197.755280958,1198.8374644579999,3,260406oj,001,2026-05-06_14h33.48.294,priming,,2026.1.3,60.0069756909023,2026-05-06 14h33.48.732247 -0700,
GR_Congruent_RedCue_RedProbe_Bottom,GreenGaborBoth.png,RedGaborBoth.png,GreenGaborBoth.png,RedGaborDisappearBottom.png,Red.mp3,red,bottom,48,48,0,,,,0,48,48,41,1198.853126583,,,,,,,,,,,,,,,,bottom,,,,,,,,1198.841190916,1200.003586166,1200.003788833,1205.253296375,1205.26208625,1206.5032664999999,1206.505629833,1207.60375375,1207.604770708,1210.420771375,mostlygreen,FinalRedContrast,FinalGreenContrast,1210.421734625,1211.987447666,3,260406oj,001,2026-05-06_14h33.48.294,priming,,2026.1.3,60.0069756909023,2026-05-06 14h33.48.732247 -0700,
GG_non_riv_catch_GreenCue_GreenProbe_Top,GreenGaborBoth.png,Blank.png,GreenGaborDisappearTop.png,Blank.png,Green.mp3,green,top,49,49,0,,,,0,49,49,78,1212.003160958,,,,,,,,,,,,,,,,top,,,,,,,,1211.990304,1212.570812541,1212.571082916,1217.819993583,1217.82962025,1219.06991975,1219.072102166,1224.987050666,1224.988816625,1227.187442416,allgreen,FinalRedContrast,FinalGreenContrast,1227.188014625,1229.037455291,4,260406oj,001,2026-05-06_14h33.48.294,priming,,2026.1.3,60.0069756909023,2026-05-06 14h33.48.732247 -0700,
GR_Incongruent_RedCue_GreenProbe_Top,GreenGaborBoth.png,RedGaborBoth.png,GreenGaborDisappearTop.png,RedGaborBoth.png,Red.mp3,red,top,50,50,0,,,,0,50,50,36,1229.053196458,,,,,,,,,,,,,,,,top,,,,,,,,1229.040233125,1230.1039785,1230.104188083,1235.353288125,1235.36363425,1236.603320166,1236.605094458,1238.1204815,1238.12180325,1239.23744475,mostlygreen,FinalRedContrast,FinalGreenContrast,1239.238464791,1243.304142875,3,260406oj,001,2026-05-06_14h33.48.294,priming,,2026.1.3,60.0069756909023,2026-05-06 14h33.48.732247 -0700,
GR_Incongruent_RedCue_GreenProbe_Bottom,GreenGaborBoth.png,RedGaborBoth.png,GreenGaborDisappearBottom.png,RedGaborBoth.png,Red.mp3,red,bottom,51,51,0,,,,0,51,51,45,1243.319848916,,,,,,,,,,,,,,,,bottom,,,,,,,,1243.304360333,1244.103677958,1244.1038477499999,1249.353476583,1249.363766041,1250.603387333,1250.605282416,1253.2204629999999,1253.221955041,1254.870877,mostlygreen,FinalRedContrast,FinalGreenContrast,1254.8723990409999,1256.854212958,2,260406oj,001,2026-05-06_14h33.48.294,priming,,2026.1.3,60.0069756909023,2026-05-06 14h33.48.732247 -0700,
RR_non_riv_catch_GreenCue_RedProbe_Bottom,Blank.png,RedGaborBoth.png,Blank.png,RedGaborDisappearBottom.png,Green.mp3,green,bottom,52,52,0,,,,0,52,52,75,1256.869983416,,,,,,,,,,,,,,,,bottom,,,,,,,,1256.857269541,1257.553671208,1257.553836375,1262.803372458,1262.811282833,1264.05339675,1264.055717583,1269.620503416,1269.621956875,1276.154985083,allred,FinalRedContrast,FinalGreenContrast,1276.155313833,1277.520920916,2,260406oj,001,2026-05-06_14h33.48.294,priming,,2026.1.3,60.0069756909023,2026-05-06 14h33.48.732247 -0700,
GR_Incongruent_GreenCue_RedProbe_Top,GreenGaborBoth.png,RedGaborBoth.png,GreenGaborBoth.png,RedGaborDisappearTop.png,Green.mp3,green,top,53,53,0,,,,0,53,53,6,1277.536714333,,,,,,,,,,,,,,,,top,,,,,,,,1277.521168083,1278.603807125,1278.60401925,1283.853483541,1283.864036333,1285.103373833,1285.1055955,1287.737195041,1287.7391022909999,1289.854231916,evensplit,FinalRedContrast,FinalGreenContrast,1289.855566583,1292.104236041,3,260406oj,001,2026-05-06_14h33.48.294,priming,,2026.1.3,60.0069756909023,2026-05-06 14h33.48.732247 -0700,
GR_Incongruent_RedCue_GreenProbe_Bottom,GreenGaborBoth.png,RedGaborBoth.png,GreenGaborDisappearBottom.png,RedGaborBoth.png,Red.mp3,red,bottom,54,54,0,,,,0,54,54,53,1292.119982291,,,,,,,,,,,,,,,,bottom,,,,,,,,1292.107531166,1292.820381791,1292.820578583,1298.0701825,1298.078800875,1299.320271875,1299.3219959159999,1303.020651541,1303.02225325,1308.037755875,evensplit,FinalRedContrast,FinalGreenContrast,1308.039041291,1312.121084125,3,260406oj,001,2026-05-06_14h33.48.294,priming,,2026.1.3,60.0069756909023,2026-05-06 14h33.48.732247 -0700,
GR_Incongruent_RedCue_GreenProbe_Top,GreenGaborBoth.png,RedGaborBoth.png,GreenGaborDisappearTop.png,RedGaborBoth.png,Red.mp3,red,top,55,55,0,,,,0,55,55,20,1312.136750708,,,,,,,,,,,,,,,,top,,,,,,,,1312.121387666,1312.7706135829999,1312.77080175,1318.020230708,1318.030111833,1319.270256083,1319.272031083,1327.637388041,1327.638262166,1330.637695958,mostlyred,FinalRedContrast,FinalGreenContrast,1330.639377375,1334.787738583,3,260406oj,001,2026-05-06_14h33.48.294,priming,,2026.1.3,60.0069756909023,2026-05-06 14h33.48.732247 -0700,
GR_Incongruent_GreenCue_RedProbe_Top,GreenGaborBoth.png,RedGaborBoth.png,GreenGaborBoth.png,RedGaborDisappearTop.png,Green.mp3,green,top,56,56,0,,,,0,56,56,70,1334.803464333,,,,,,,,,,,,,,,,top,,,,,,,,1334.790893583,1335.537565625,1335.537741291,1340.7869491659999,1340.798774,1342.036970125,1342.03883475,1343.320749583,1343.321606,1345.7044905,mostlygreen,FinalRedContrast,FinalGreenContrast,1345.70587525,1353.204478458,3,260406oj,001,2026-05-06_14h33.48.294,priming,,2026.1.3,60.0069756909023,2026-05-06 14h33.48.732247 -0700,
GR_Congruent_RedCue_RedProbe_Bottom,GreenGaborBoth.png,RedGaborBoth.png,GreenGaborBoth.png,RedGaborDisappearBottom.png,Red.mp3,red,bottom,57,57,0,,,,0,57,57,1,1353.2202375,,,,,,,,,,,,,,,,bottom,,,,,,,,1353.207232625,1354.220713833,1354.220903416,1359.470557375,1359.482178291,1360.720277958,1360.722772375,1363.337457375,1363.338870916,1365.771215041,mostlyred,FinalRedContrast,FinalGreenContrast,1365.772296958,1368.27113925,3,260406oj,001,2026-05-06_14h33.48.294,priming,,2026.1.3,60.0069756909023,2026-05-06 14h33.48.732247 -0700,
GR_Congruent_RedCue_RedProbe_Top,GreenGaborBoth.png,RedGaborBoth.png,GreenGaborBoth.png,RedGaborDisappearTop.png,Red.mp3,red,top,58,58,0,,,,0,58,58,48,1368.286865791,,,,,,,,,,,,,,,,top,,,,,,,,1368.271416625,1369.103991208,1369.104164875,1374.353627291,1374.361732958,1375.603629916,1375.605657,1377.637518416,1377.6388165829999,1390.171335875,evensplit,FinalRedContrast,FinalGreenContrast,1390.1719794159999,1392.721172416,3,260406oj,001,2026-05-06_14h33.48.294,priming,,2026.1.3,60.0069756909023,2026-05-06 14h33.48.732247 -0700,
GR_Congruent_GreenCue_GreenProbe_Top,GreenGaborBoth.png,RedGaborBoth.png,GreenGaborDisappearTop.png,RedGaborBoth.png,Green.mp3,green,top,59,59,0,,,,0,59,59,18,1392.736986083,,,,,,,,,,,,,,,,top,,,,,,,,1392.724326625,1393.4372705,1393.437462458,1398.687179625,1398.697888833,1399.937116083,1399.939193875,1403.404210875,1403.406082625,1405.288001875,allgreen,FinalRedContrast,FinalGreenContrast,1405.289253708,1407.471347333,3,260406oj,001,2026-05-06_14h33.48.294,priming,,2026.1.3,60.0069756909023,2026-05-06 14h33.48.732247 -0700,
GR_Incongruent_GreenCue_RedProbe_Top,GreenGaborBoth.png,RedGaborBoth.png,GreenGaborBoth.png,RedGaborDisappearTop.png,Green.mp3,green,top,60,60,0,,,,0,60,60,46,1407.487059291,,,,,,,,,,,,,,,,bottom,,,,,,,,1407.471934625,1942.994123666,1942.994416958,1948.238496625,1948.253728333,1949.505227208,1949.507825541,1952.138932083,1952.1398201660002,1954.022750583,allgreen,FinalRedContrast,FinalGreenContrast,1954.024112291,1955.85609775,3,260406oj,001,2026-05-06_14h33.48.294,priming,,2026.1.3,60.0069756909023,2026-05-06 14h33.48.732247 -0700,
GR_Congruent_GreenCue_GreenProbe_Top,GreenGaborBoth.png,RedGaborBoth.png,GreenGaborDisappearTop.png,RedGaborBoth.png,Green.mp3,green,top,61,61,0,,,,0,61,61,26,1955.8717816249998,,,,,,,,,,,,,,,,top,,,,,,,,1955.856519916,1966.772363625,1966.772640291,1972.0218765000002,1972.0325438749999,1973.2718591659998,1973.2745053330002,1976.4390149160001,1976.4401102909999,1978.25601425,mostlygreen,FinalRedContrast,FinalGreenContrast,1978.2571007909999,1979.772705833,3,260406oj,001,2026-05-06_14h33.48.294,priming,,2026.1.3,60.0069756909023,2026-05-06 14h33.48.732247 -0700,
GR_Incongruent_GreenCue_RedProbe_Bottom,GreenGaborBoth.png,RedGaborBoth.png,GreenGaborBoth.png,RedGaborDisappearBottom.png,Green.mp3,green,bottom,62,62,0,,,,0,62,62,15,1979.7884459999998,,,,,,,,,,,,,,,,top,,,,,,,,1979.772961041,1980.7387955830002,1980.738967041,1985.9886173329999,1985.9985516660001,1987.23855725,1987.240377166,1990.272368625,1990.273199083,1993.2394120000001,mostlygreen,FinalRedContrast,FinalGreenContrast,1993.2407033749998,1994.439627333,3,260406oj,001,2026-05-06_14h33.48.294,priming,,2026.1.3,60.0069756909023,2026-05-06 14h33.48.732247 -0700,
GR_Congruent_GreenCue_GreenProbe_Top,GreenGaborBoth.png,RedGaborBoth.png,GreenGaborDisappearTop.png,RedGaborBoth.png,Green.mp3,green,top,63,63,0,,,,0,63,63,58,1994.4551547499998,,,,,,,,,,,,,,,,top,,,,,,,,1994.439921333,1996.0390624580002,1996.039247291,2001.2887185000002,2001.2996714580001,2002.538691375,2002.5406489999998,2004.2724985000002,2004.273540333,2006.189492708,allgreen,FinalRedContrast,FinalGreenContrast,2006.1903516250002,2007.5061306660002,3,260406oj,001,2026-05-06_14h33.48.294,priming,,2026.1.3,60.0069756909023,2026-05-06 14h33.48.732247 -0700,
GR_Congruent_GreenCue_GreenProbe_Top,GreenGaborBoth.png,RedGaborBoth.png,GreenGaborDisappearTop.png,RedGaborBoth.png,Green.mp3,green,top,64,64,0,,,,0,64,64,42,2007.5219142909998,,,,,,,,,,,,,,,,top,,,,,,,,2007.5064319159999,2008.4389584580001,2008.439135291,2013.6886474159999,2013.696771875,2014.9386902909998,2014.940625333,2016.0391616660002,2016.040450666,2018.5562781659999,allgreen,FinalRedContrast,FinalGreenContrast,2018.5571337909998,2019.539590791,3,260406oj,001,2026-05-06_14h33.48.294,priming,,2026.1.3,60.0069756909023,2026-05-06 14h33.48.732247 -0700,
GR_Congruent_RedCue_RedProbe_Bottom,GreenGaborBoth.png,RedGaborBoth.png,GreenGaborBoth.png,RedGaborDisappearBottom.png,Red.mp3,red,bottom,65,65,0,,,,0,65,65,9,2019.5552904580002,,,,,,,,,,,,,,,,bottom,,,,,,,,2019.5430801250002,2021.2056196659998,2021.2057872080002,2026.455325708,2026.4650118749998,2027.7053078749998,2027.7071882910002,2029.3723978330002,2029.3741534580001,2033.4394452499998,allgreen,FinalRedContrast,FinalGreenContrast,2033.4406770409998,2036.3894887499998,3,260406oj,001,2026-05-06_14h33.48.294,priming,,2026.1.3,60.0069756909023,2026-05-06 14h33.48.732247 -0700,
GR_Congruent_GreenCue_GreenProbe_Top,GreenGaborBoth.png,RedGaborBoth.png,GreenGaborDisappearTop.png,RedGaborBoth.png,Green.mp3,green,top,66,66,0,,,,0,66,66,34,2036.4052532080002,,,,,,,,,,,,,,,,top,,,,,,,,2036.3924559999998,2039.38897725,2039.389177916,2044.638782583,2044.649046708,2045.8887026250002,2045.8906797910001,2046.7057496250002,2046.7075914159998,2047.8729972909998,allgreen,FinalRedContrast,FinalGreenContrast,2047.8738768330002,2050.089659708,3,260406oj,001,2026-05-06_14h33.48.294,priming,,2026.1.3,60.0069756909023,2026-05-06 14h33.48.732247 -0700,
GR_Congruent_RedCue_RedProbe_Bottom,GreenGaborBoth.png,RedGaborBoth.png,GreenGaborBoth.png,RedGaborDisappearBottom.png,Red.mp3,red,bottom,67,67,0,,,,0,67,67,65,2050.1053754160002,,,,,,,,,,,,,,,,bottom,,,,,,,,2050.091721875,2051.005835958,2051.0060327909996,2056.2554559580003,2056.263743333,2057.5054725829996,2057.5073767080003,2059.6059906660003,2059.6078377080003,2060.27295325,allgreen,FinalRedContrast,FinalGreenContrast,2060.2738125409996,2061.8896326249996,3,260406oj,001,2026-05-06_14h33.48.294,priming,,2026.1.3,60.0069756909023,2026-05-06 14h33.48.732247 -0700,
GR_Incongruent_RedCue_GreenProbe_Top,GreenGaborBoth.png,RedGaborBoth.png,GreenGaborDisappearTop.png,RedGaborBoth.png,Red.mp3,red,top,68,68,0,,,,0,68,68,52,2061.9053429160003,,,,,,,,,,,,,,,,top,,,,,,,,2061.8898043749996,2062.439056708,2062.439235375,2067.688822458,2067.699463041,2068.9388148750004,2068.940563041,2070.6227550000003,2070.6234667910003,2071.622956583,allgreen,FinalRedContrast,FinalGreenContrast,2071.6239147079996,2073.7062554579998,3,260406oj,001,2026-05-06_14h33.48.294,priming,,2026.1.3,60.0069756909023,2026-05-06 14h33.48.732247 -0700,
GR_Congruent_GreenCue_GreenProbe_Bottom,GreenGaborBoth.png,RedGaborBoth.png,GreenGaborDisappearBottom.png,RedGaborBoth.png,Green.mp3,green,bottom,69,69,0,,,,0,69,69,27,2073.7220396250004,,,,,,,,,,,,,,,,bottom,,,,,,,,2073.7090363750003,2074.639521833,2074.6397199579997,2079.8887866249997,2079.898502,2081.138844166,2081.140798208,2082.022504458,2082.0240832910004,2085.572958791,allgreen,FinalRedContrast,FinalGreenContrast,2085.574476916,2086.7062377909997,3,260406oj,001,2026-05-06_14h33.48.294,priming,,2026.1.3,60.0069756909023,2026-05-06 14h33.48.732247 -0700,
GG_non_riv_catch_RedCue_GreenProbe_Top,GreenGaborBoth.png,Blank.png,GreenGaborDisappearTop.png,Blank.png,Red.mp3,red,top,70,70,0,,,,0,70,70,76,2086.7221198750003,,,,,,,,,,,,,,,,top,,,,,,,,2086.7082748330004,2092.4397390410004,2092.439948041,2097.6888615,2097.6981501660002,2099.038900333,2099.0410965829997,2101.3894385000003,2101.3902849160004,2102.3563885000003,allgreen,FinalRedContrast,FinalGreenContrast,2102.3572721660003,2114.3231831659996,3,260406oj,001,2026-05-06_14h33.48.294,priming,,2026.1.3,60.0069756909023,2026-05-06 14h33.48.732247 -0700,
GR_Congruent_GreenCue_GreenProbe_Bottom,GreenGaborBoth.png,RedGaborBoth.png,GreenGaborDisappearBottom.png,RedGaborBoth.png,Green.mp3,green,bottom,71,71,0,,,,0,71,71,19,2114.3388277080003,,,,,,,,,,,,,,,,bottom,,,,,,,,2114.326464666,2114.856300583,2114.856501833,2120.105618333,2120.1155260409996,2121.355538291,2121.3575705000003,2122.7893830000003,2122.790840375,2124.1897443750004,allgreen,FinalRedContrast,FinalGreenContrast,2124.191121291,2127.2898685,3,260406oj,001,2026-05-06_14h33.48.294,priming,,2026.1.3,60.0069756909023,2026-05-06 14h33.48.732247 -0700,
GR_Incongruent_RedCue_GreenProbe_Bottom,GreenGaborBoth.png,RedGaborBoth.png,GreenGaborDisappearBottom.png,RedGaborBoth.png,Red.mp3,red,bottom,72,72,0,,,,0,72,72,61,2127.3055541659996,,,,,,,,,,,,,,,,bottom,,,,,,,,2127.292732541,2134.4893298750003,2134.48958675,2139.738921333,2139.7488143749997,2140.9890701659997,2140.9917481250004,2142.6560364159996,2142.656983541,2143.306466541,allgreen,FinalRedContrast,FinalGreenContrast,2143.307710291,2145.7397446249997,3,260406oj,001,2026-05-06_14h33.48.294,priming,,2026.1.3,60.0069756909023,2026-05-06 14h33.48.732247 -0700,
GR_Incongruent_RedCue_GreenProbe_Top,GreenGaborBoth.png,RedGaborBoth.png,GreenGaborDisappearTop.png,RedGaborBoth.png,Red.mp3,red,top,73,73,0,,,,0,73,73,44,2145.75548575,,,,,,,,,,,,,,,,top,,,,,,,,2145.740028041,2146.605895208,2146.6060851660004,2151.8557617079996,2151.8643975409996,2153.1057388749996,2153.1074485,2154.0728605000004,2154.0740983329997,2155.5066132909997,mostlygreen,FinalRedContrast,FinalGreenContrast,2155.5073294579997,2159.4732676659996,3,260406oj,001,2026-05-06_14h33.48.294,priming,,2026.1.3,60.0069756909023,2026-05-06 14h33.48.732247 -0700,
GR_Congruent_RedCue_RedProbe_Top,GreenGaborBoth.png,RedGaborBoth.png,GreenGaborBoth.png,RedGaborDisappearTop.png,Red.mp3,red,top,74,74,0,,,,0,74,74,8,2159.488976791,,,,,,,,,,,,,,,,top,,,,,,,,2159.473426458,2160.1393354579996,2160.1395117909997,2165.38910775,2165.397812583,2166.6389956249996,2166.6411138330004,2170.6728838749996,2170.6748569580004,2172.5898354580004,evensplit,FinalRedContrast,FinalGreenContrast,2172.5913438750003,2174.806546125,3,260406oj,001,2026-05-06_14h33.48.294,priming,,2026.1.3,60.0069756909023,2026-05-06 14h33.48.732247 -0700,
GR_Incongruent_RedCue_GreenProbe_Top,GreenGaborBoth.png,RedGaborBoth.png,GreenGaborDisappearTop.png,RedGaborBoth.png,Red.mp3,red,top,75,75,0,,,,0,75,75,4,2174.8223391660003,,,,,,,,,,,,,,,,top,,,,,,,,2174.8068118749998,2175.2393875,2175.2395878750003,2180.4890247499998,2180.4977741659995,2181.7390274580002,2181.741455458,2183.356174875,2183.357998708,2184.25664425,allgreen,FinalRedContrast,FinalGreenContrast,2184.2573055000003,2185.156515666,3,260406oj,001,2026-05-06_14h33.48.294,priming,,2026.1.3,60.0069756909023,2026-05-06 14h33.48.732247 -0700,
GR_Congruent_GreenCue_GreenProbe_Bottom,GreenGaborBoth.png,RedGaborBoth.png,GreenGaborDisappearBottom.png,RedGaborBoth.png,Green.mp3,green,bottom,76,76,0,,,,0,76,76,67,2185.1723012499997,,,,,,,,,,,,,,,,bottom,,,,,,,,2185.159454916,2185.589311666,2185.5894847500003,2190.8390159580003,2190.8475769160004,2192.0890440000003,2192.0909492909996,2193.840030333,2193.840907375,2195.6232116250003,mostlygreen,FinalRedContrast,FinalGreenContrast,2195.6245114579997,2198.023342875,3,260406oj,001,2026-05-06_14h33.48.294,priming,,2026.1.3,60.0069756909023,2026-05-06 14h33.48.732247 -0700,
GR_Congruent_RedCue_RedProbe_Top,GreenGaborBoth.png,RedGaborBoth.png,GreenGaborBoth.png,RedGaborDisappearTop.png,Red.mp3,red,top,77,77,0,,,,0,77,77,40,2198.038959333,,,,,,,,,,,,,,,,top,,,,,,,,2198.025288166,2198.6726777080003,2198.672864708,2203.9224831660003,2203.9314270000004,2205.1725007080004,2205.1744154159996,2207.2620610000004,2207.2624476660003,2208.356712875,mostlyred,FinalRedContrast,FinalGreenContrast,2208.3584811660003,2210.1733219159996,3,260406oj,001,2026-05-06_14h33.48.294,priming,,2026.1.3,60.0069756909023,2026-05-06 14h33.48.732247 -0700,
GR_Congruent_RedCue_RedProbe_Top,GreenGaborBoth.png,RedGaborBoth.png,GreenGaborBoth.png,RedGaborDisappearTop.png,Red.mp3,red,top,78,78,0,,,,0,78,78,32,2210.1890625409997,,,,,,,,,,,,,,,,top,,,,,,,,2210.1735513330004,2211.122791666,2211.122965666,2216.372480958,2216.380998916,2217.6224888750003,2217.624310833,2218.422988333,2218.4244519579997,2219.356720166,mostlygreen,FinalRedContrast,FinalGreenContrast,2219.358172583,2220.2567901250004,3,260406oj,001,2026-05-06_14h33.48.294,priming,,2026.1.3,60.0069756909023,2026-05-06 14h33.48.732247 -0700,
GR_Incongruent_RedCue_GreenProbe_Bottom,GreenGaborBoth.png,RedGaborBoth.png,GreenGaborDisappearBottom.png,RedGaborBoth.png,Red.mp3,red,bottom,79,79,0,,,,0,79,79,21,2220.272401208,,,,,,,,,,,,,,,,bottom,,,,,,,,2220.256944666,2221.023296333,2221.0234825,2226.2725655000004,2226.280765333,2227.522504791,2227.524349708,2230.2229577079997,2230.224416541,2231.2567252910003,evensplit,FinalRedContrast,FinalGreenContrast,2231.257307166,2236.156747541,3,260406oj,001,2026-05-06_14h33.48.294,priming,,2026.1.3,60.0069756909023,2026-05-06 14h33.48.732247 -0700,
GR_Incongruent_GreenCue_RedProbe_Top,GreenGaborBoth.png,RedGaborBoth.png,GreenGaborBoth.png,RedGaborDisappearTop.png,Green.mp3,green,top,80,0,1,,,,1,0,80,38,2236.1724229580004,,,,,,,,,,,,,,,,top,,,,,,,,2236.160751708,2236.906240583,2236.9064390410003,2242.155788375,2242.165855708,2243.4058668750004,2243.408498375,2245.5063066659995,2245.5077246660003,2255.756816166,mostlyred,FinalRedContrast,FinalGreenContrast,2255.75813525,2256.890081083,3,260406oj,001,2026-05-06_14h33.48.294,priming,,2026.1.3,60.0069756909023,2026-05-06 14h33.48.732247 -0700,
GR_Incongruent_GreenCue_RedProbe_Bottom,GreenGaborBoth.png,RedGaborBoth.png,GreenGaborBoth.png,RedGaborDisappearBottom.png,Green.mp3,green,bottom,81,1,1,,,,1,1,81,39,2256.905863,,,,,,,,,,,,,,,,bottom,,,,,,,,2256.890376583,2257.3063235829995,2257.3065239999996,2262.5560279580004,2262.568331916,2263.8059249999997,2263.8078291250004,2264.956503333,2264.957792,2272.24019075,mostlygreen,FinalRedContrast,FinalGreenContrast,2272.2413115,2273.4069821249996,3,260406oj,001,2026-05-06_14h33.48.294,priming,,2026.1.3,60.0069756909023,2026-05-06 14h33.48.732247 -0700,
GR_Congruent_RedCue_RedProbe_Bottom,GreenGaborBoth.png,RedGaborBoth.png,GreenGaborBoth.png,RedGaborDisappearBottom.png,Red.mp3,red,bottom,82,2,1,,,,1,2,82,57,2273.4225563749997,,,,,,,,,,,,,,,,bottom,,,,,,,,2273.4098787909998,2274.039605166,2274.039781583,2279.2893040830004,2279.299768166,2280.5392970410003,2280.541620125,2281.673083375,2281.6741128330004,2283.7569257080004,evensplit,FinalRedContrast,FinalGreenContrast,2283.7581867910003,2285.156845875,3,260406oj,001,2026-05-06_14h33.48.294,priming,,2026.1.3,60.0069756909023,2026-05-06 14h33.48.732247 -0700,
GR_Incongruent_GreenCue_RedProbe_Bottom,GreenGaborBoth.png,RedGaborBoth.png,GreenGaborBoth.png,RedGaborDisappearBottom.png,Green.mp3,green,bottom,83,3,1,,,,1,3,83,15,2285.172630125,,,,,,,,,,,,,,,,bottom,,,,,,,,2285.160564416,2285.7562935409996,2285.756458916,2291.005937125,2291.0157334160003,2292.2559661249998,2292.2578904579996,2293.6064665410004,2293.607909208,2295.290209541,evensplit,FinalRedContrast,FinalGreenContrast,2295.2911473329996,2305.8068965,3,260406oj,001,2026-05-06_14h33.48.294,priming,,2026.1.3,60.0069756909023,2026-05-06 14h33.48.732247 -0700,
GR_Congruent_RedCue_RedProbe_Bottom,GreenGaborBoth.png,RedGaborBoth.png,GreenGaborBoth.png,RedGaborDisappearBottom.png,Red.mp3,red,bottom,84,4,1,,,,1,4,84,17,2305.8225785410004,,,,,,,,,,,,,,,,bottom,,,,,,,,2305.811459583,2306.423364208,2306.423546125,2311.672825666,2311.683076083,2312.9227213329996,2312.9245386660004,2314.323234333,2314.324188875,2316.5069191250004,mostlyred,FinalRedContrast,FinalGreenContrast,2316.508218041,2317.390201583,3,260406oj,001,2026-05-06_14h33.48.294,priming,,2026.1.3,60.0069756909023,2026-05-06 14h33.48.732247 -0700,
GR_Congruent_GreenCue_GreenProbe_Top,GreenGaborBoth.png,RedGaborBoth.png,GreenGaborDisappearTop.png,RedGaborBoth.png,Green.mp3,green,top,85,5,1,,,,1,5,85,18,2317.406056125,,,,,,,,,,,,,,,,top,,,,,,,,2317.3925066250004,2318.373046625,2318.3732155830003,2323.622748666,2323.6328671250003,2324.872782916,2324.8744955,2327.3731675,2327.3746706660004,2330.0069065830003,mostlygreen,FinalRedContrast,FinalGreenContrast,2330.0082499580003,2331.590273,3,260406oj,001,2026-05-06_14h33.48.294,priming,,2026.1.3,60.0069756909023,2026-05-06 14h33.48.732247 -0700,
GG_non_riv_catch_RedCue_GreenProbe_Bottom,GreenGaborBoth.png,Blank.png,GreenGaborDisappearBottom.png,Blank.png,Red.mp3,red,bottom,86,6,1,,,,1,6,86,77,2331.6060312500003,,,,,,,,,,,,,,,,bottom,,,,,,,,2331.592003916,2332.0064355000004,2332.0066046660004,2337.256150333,2337.264272083,2338.506062083,2338.507885291,2343.3565860830004,2343.3579768749996,2345.0902943749998,allgreen,FinalRedContrast,FinalGreenContrast,2345.091406875,2346.0402867499997,3,260406oj,001,2026-05-06_14h33.48.294,priming,,2026.1.3,60.0069756909023,2026-05-06 14h33.48.732247 -0700,
GR_Incongruent_GreenCue_RedProbe_Bottom,GreenGaborBoth.png,RedGaborBoth.png,GreenGaborBoth.png,RedGaborDisappearBottom.png,Green.mp3,green,bottom,87,7,1,,,,1,7,87,63,2346.0559807910004,,,,,,,,,,,,,,,,bottom,,,,,,,,2346.0431458330004,2346.506502041,2346.5066897079996,2351.756490416,2351.7680462079998,2353.0061860409996,2353.0080496250002,2353.939851833,2353.9414530410004,2355.40735425,evensplit,FinalRedContrast,FinalGreenContrast,2355.407934875,2356.440266333,3,260406oj,001,2026-05-06_14h33.48.294,priming,,2026.1.3,60.0069756909023,2026-05-06 14h33.48.732247 -0700,
GR_Incongruent_RedCue_GreenProbe_Bottom,GreenGaborBoth.png,RedGaborBoth.png,GreenGaborDisappearBottom.png,RedGaborBoth.png,Red.mp3,red,bottom,88,8,1,,,,1,8,88,29,2356.456016375,,,,,,,,,,,,,,,,bottom,,,,,,,,2356.442526375,2356.8397455410004,2356.839921541,2362.0895091660004,2362.097881375,2363.339623541,2363.3414608330004,2364.690018083,2364.691435166,2366.707035083,allgreen,FinalRedContrast,FinalGreenContrast,2366.7081154999996,2367.9403427079997,3,260406oj,001,2026-05-06_14h33.48.294,priming,,2026.1.3,60.0069756909023,2026-05-06 14h33.48.732247 -0700,
GR_Congruent_GreenCue_GreenProbe_Bottom,GreenGaborBoth.png,RedGaborBoth.png,GreenGaborDisappearBottom.png,RedGaborBoth.png,Green.mp3,green,bottom,89,9,1,,,,1,9,89,67,2367.956138083,,,,,,,,,,,,,,,,bottom,,,,,,,,2367.9424515829996,2368.873217333,2368.873387208,2374.12288625,2374.132456833,2375.3729148330003,2375.3748102500003,2379.0233719999997,2379.024204083,2380.0570845,mostlygreen,FinalRedContrast,FinalGreenContrast,2380.058433833,2381.107050875,3,260406oj,001,2026-05-06_14h33.48.294,priming,,2026.1.3,60.0069756909023,2026-05-06 14h33.48.732247 -0700,
GR_Congruent_RedCue_RedProbe_Bottom,GreenGaborBoth.png,RedGaborBoth.png,GreenGaborBoth.png,RedGaborDisappearBottom.png,Red.mp3,red,bottom,90,10,1,,,,1,10,90,33,2381.1228179580003,,,,,,,,,,,,,,,,bottom,,,,,,,,2381.1096940830002,2381.5899204999996,2381.590098291,2386.839631375,2386.8508702910003,2388.089548,2388.0915535410004,2392.156645416,2392.158447166,2397.340444583,evensplit,FinalRedContrast,FinalGreenContrast,2397.341686625,2398.990587833,3,260406oj,001,2026-05-06_14h33.48.294,priming,,2026.1.3,60.0069756909023,2026-05-06 14h33.48.732247 -0700,
GR_Incongruent_GreenCue_RedProbe_Top,GreenGaborBoth.png,RedGaborBoth.png,GreenGaborBoth.png,RedGaborDisappearTop.png,Green.mp3,green,top,91,11,1,,,,1,11,91,62,2399.006105458,,,,,,,,,,,,,,,,top,,,,,,,,2398.993511916,2399.856510333,2399.856686375,2405.1062287080003,2405.116235916,2406.3562381250003,2406.3581848329995,2408.6434630000003,2408.6437814580004,2410.9570938750003,mostlygreen,FinalRedContrast,FinalGreenContrast,2410.9586750830003,2412.2237282079996,3,260406oj,001,2026-05-06_14h33.48.294,priming,,2026.1.3,60.0069756909023,2026-05-06 14h33.48.732247 -0700,
GR_Incongruent_RedCue_GreenProbe_Bottom,GreenGaborBoth.png,RedGaborBoth.png,GreenGaborDisappearBottom.png,RedGaborBoth.png,Red.mp3,red,bottom,92,12,1,,,,1,12,92,45,2412.239484916,,,,,,,,,,,,,,,,bottom,,,,,,,,2412.2265342500004,2412.6398686250004,2412.640057541,2417.8897527910003,2417.899842666,2419.139730791,2419.1416016249996,2420.8234601249997,2420.8249142080003,2422.3238622910003,evensplit,FinalRedContrast,FinalGreenContrast,2422.324921333,2423.6573011250002,3,260406oj,001,2026-05-06_14h33.48.294,priming,,2026.1.3,60.0069756909023,2026-05-06 14h33.48.732247 -0700,
GR_Incongruent_RedCue_GreenProbe_Top,GreenGaborBoth.png,RedGaborBoth.png,GreenGaborDisappearTop.png,RedGaborBoth.png,Red.mp3,red,top,93,13,1,,,,1,13,93,36,2423.6729185410004,,,,,,,,,,,,,,,,top,,,,,,,,2423.657579666,2424.1400001250004,2424.140203166,2429.3897294999997,2429.399727833,2430.6397582910004,2430.6414519580003,2432.2401997079996,2432.241152875,2433.0076665409997,mostlygreen,FinalRedContrast,FinalGreenContrast,2433.007926,2434.5738439160004,3,260406oj,001,2026-05-06_14h33.48.294,priming,,2026.1.3,60.0069756909023,2026-05-06 14h33.48.732247 -0700,
GR_Congruent_RedCue_RedProbe_Bottom,GreenGaborBoth.png,RedGaborBoth.png,GreenGaborBoth.png,RedGaborDisappearBottom.png,Red.mp3,red,bottom,94,14,1,,,,1,14,94,41,2434.5896570000004,,,,,,,,,,,,,,,,bottom,,,,,,,,2434.5740152910003,2435.573294166,2435.5734629159997,2440.8230968750004,2440.8312796660002,2442.072977125,2442.07489875,2443.256809791,2443.2581516660002,2444.4905150410004,evensplit,FinalRedContrast,FinalGreenContrast,2444.4916374160002,2445.523827125,3,260406oj,001,2026-05-06_14h33.48.294,priming,,2026.1.3,60.0069756909023,2026-05-06 14h33.48.732247 -0700,
GG_non_riv_catch_GreenCue_GreenProbe_Top,GreenGaborBoth.png,Blank.png,GreenGaborDisappearTop.png,Blank.png,Green.mp3,green,top,95,15,1,,,,1,15,95,78,2445.53958675,,,,,,,,,,,,,,,,top,,,,,,,,2445.5272215409996,2446.056739416,2446.056916083,2451.306331291,2451.315231875,2452.556347791,2452.558601166,2455.3234392080003,2455.3250094160003,2456.9238984579997,allgreen,FinalRedContrast,FinalGreenContrast,2456.9254138329998,2458.3238229159997,4,260406oj,001,2026-05-06_14h33.48.294,priming,,2026.1.3,60.0069756909023,2026-05-06 14h33.48.732247 -0700,
GR_Incongruent_RedCue_GreenProbe_Top,GreenGaborBoth.png,RedGaborBoth.png,GreenGaborDisappearTop.png,RedGaborBoth.png,Red.mp3,red,top,96,16,1,,,,1,16,96,28,2458.3396000410003,,,,,,,,,,,,,,,,top,,,,,,,,2458.325900916,2458.8567000410003,2458.8568670410004,2464.1063456250004,2464.114836875,2465.3563168749997,2465.3585467499997,2466.656926208,2466.6577584999995,2469.1906528749996,evensplit,FinalRedContrast,FinalGreenContrast,2469.19189275,2470.523960458,3,260406oj,001,2026-05-06_14h33.48.294,priming,,2026.1.3,60.0069756909023,2026-05-06 14h33.48.732247 -0700,
GR_Congruent_GreenCue_GreenProbe_Bottom,GreenGaborBoth.png,RedGaborBoth.png,GreenGaborDisappearBottom.png,RedGaborBoth.png,Green.mp3,green,bottom,97,17,1,,,,1,17,97,35,2470.539697041,,,,,,,,,,,,,,,,bottom,,,,,,,,2470.526511583,2472.2735508329997,2472.273755458,2477.523185291,2477.531738791,2478.7730982909998,2478.7749704159996,2480.5068983749998,2480.5083166249997,2481.674457375,mostlygreen,FinalRedContrast,FinalGreenContrast,2481.6752640000004,2483.024081791,3,260406oj,001,2026-05-06_14h33.48.294,priming,,2026.1.3,60.0069756909023,2026-05-06 14h33.48.732247 -0700,
GR_Congruent_RedCue_RedProbe_Bottom,GreenGaborBoth.png,RedGaborBoth.png,GreenGaborBoth.png,RedGaborDisappearBottom.png,Red.mp3,red,bottom,98,18,1,,,,1,18,98,1,2483.0397001660003,,,,,,,,,,,,,,,,bottom,,,,,,,,2483.0258196249997,2483.4736389580003,2483.473806625,2488.723137625,2488.7314321249996,2489.9731836660003,2489.9753370830003,2492.9918232910004,2492.9921732909997,2496.590595666,mostlyred,FinalRedContrast,FinalGreenContrast,2496.5915812499998,2498.940743291,3,260406oj,001,2026-05-06_14h33.48.294,priming,,2026.1.3,60.0069756909023,2026-05-06 14h33.48.732247 -0700,
RR_non_riv_catch_GreenCue_RedProbe_Top,Blank.png,RedGaborBoth.png,Blank.png,RedGaborDisappearTop.png,Green.mp3,green,top,99,19,1,,,,1,19,99,74,2498.9564740409996,,,,,,,,,,,,,,,,top,,,,,,,,2498.9436773750003,2500.106812958,2500.107053083,2505.3564810830003,2505.3653061659998,2506.6065545829997,2506.6082533749995,2507.807554166,2507.808416041,2509.915395541,allred,FinalRedContrast,FinalGreenContrast,2509.915677416,2513.9239815,3,260406oj,001,2026-05-06_14h33.48.294,priming,,2026.1.3,60.0069756909023,2026-05-06 14h33.48.732247 -0700,
GR_Incongruent_GreenCue_RedProbe_Top,GreenGaborBoth.png,RedGaborBoth.png,GreenGaborBoth.png,RedGaborDisappearTop.png,Green.mp3,green,top,100,20,1,,,,1,20,100,30,2513.9397078330003,,,,,,,,,,,,,,,,top,,,,,,,,2513.924331333,2514.673437333,2514.673624958,2519.923132416,2519.933530208,2521.1731219579997,2521.175099291,2523.2078650000003,2523.208273708,2524.2740921249997,mostlygreen,FinalRedContrast,FinalGreenContrast,2524.275155708,2525.7078731660004,3,260406oj,001,2026-05-06_14h33.48.294,priming,,2026.1.3,60.0069756909023,2026-05-06 14h33.48.732247 -0700,
GR_Congruent_RedCue_RedProbe_Top,GreenGaborBoth.png,RedGaborBoth.png,GreenGaborBoth.png,RedGaborDisappearTop.png,Red.mp3,red,top,101,21,1,,,,1,21,101,16,2525.7231920410004,,,,,,,,,,,,,,,,top,,,,,,,,2525.711341833,2526.3403005829996,2526.340469666,2531.5899035410002,2531.5997395410004,2532.8399552499995,2532.84174275,2533.607672583,2533.6080078329996,2535.30744875,evensplit,FinalRedContrast,FinalGreenContrast,2535.3087293750004,2536.2240819999997,3,260406oj,001,2026-05-06_14h33.48.294,priming,,2026.1.3,60.0069756909023,2026-05-06 14h33.48.732247 -0700,
GR_Congruent_RedCue_RedProbe_Top,GreenGaborBoth.png,RedGaborBoth.png,GreenGaborBoth.png,RedGaborDisappearTop.png,Red.mp3,red,top,102,22,1,,,,1,22,102,32,2536.2398441249998,,,,,,,,,,,,,,,,top,,,,,,,,2536.2242349999997,2536.640352708,2536.640522208,2541.8899604159997,2541.8987688750003,2543.1400327499996,2543.1418493749998,2544.3905782909997,2544.3919159159996,2546.574102916,evensplit,FinalRedContrast,FinalGreenContrast,2546.5755879999997,2548.074164625,3,260406oj,001,2026-05-06_14h33.48.294,priming,,2026.1.3,60.0069756909023,2026-05-06 14h33.48.732247 -0700,
GR_Incongruent_RedCue_GreenProbe_Bottom,GreenGaborBoth.png,RedGaborBoth.png,GreenGaborDisappearBottom.png,RedGaborBoth.png,Red.mp3,red,bottom,103,23,1,,,,1,23,103,53,2548.0898718750004,,,,,,,,,,,,,,,,bottom,,,,,,,,2548.074334666,2548.773631,2548.7738325829996,2554.02330275,2554.033912041,2555.273225958,2555.276114833,2556.0570507499997,2556.058383875,2558.3407685829998,mostlyred,FinalRedContrast,FinalGreenContrast,2558.3417892079997,2559.3075323330004,3,260406oj,001,2026-05-06_14h33.48.294,priming,,2026.1.3,60.0069756909023,2026-05-06 14h33.48.732247 -0700,
GR_Incongruent_RedCue_GreenProbe_Top,GreenGaborBoth.png,RedGaborBoth.png,GreenGaborDisappearTop.png,RedGaborBoth.png,Red.mp3,red,top,104,24,1,,,,1,24,104,44,2559.323160791,,,,,,,,,,,,,,,,top,,,,,,,,2559.307862666,2559.8402177079997,2559.840393333,2565.089913541,2565.100017666,2566.339990583,2566.341969583,2567.5403955829997,2567.5419416249997,2569.490826083,evensplit,FinalRedContrast,FinalGreenContrast,2569.4920913329997,2570.4574139160004,3,260406oj,001,2026-05-06_14h33.48.294,priming,,2026.1.3,60.0069756909023,2026-05-06 14h33.48.732247 -0700,
RR_non_riv_catch_RedCue_RedProbe_Bottom,Blank.png,RedGaborBoth.png,Blank.png,RedGaborDisappearBottom.png,Red.mp3,red,bottom,105,25,1,,,,1,25,105,73,2570.4732102079997,,,,,,,,,,,,,,,,bottom,,,,,,,,2570.4575890409997,2570.856930416,2570.857101916,2576.1066740409997,2576.1140482909996,2577.3565849160004,2577.358425958,2579.6240259160004,2579.624899916,2581.840994041,allred,FinalRedContrast,FinalGreenContrast,2581.841676166,2584.3741909580003,3,260406oj,001,2026-05-06_14h33.48.294,priming,,2026.1.3,60.0069756909023,2026-05-06 14h33.48.732247 -0700,
GG_non_riv_catch_RedCue_GreenProbe_Top,GreenGaborBoth.png,Blank.png,GreenGaborDisappearTop.png,Blank.png,Red.mp3,red,top,106,26,1,,,,1,26,106,76,2584.3899874159997,,,,,,,,,,,,,,,,top,,,,,,,,2584.3742941660003,2585.257066041,2585.2572574160004,2590.5067281660004,2590.514093125,2591.7568166250003,2591.758632708,2592.974528625,2592.975412166,2594.391324208,allgreen,FinalRedContrast,FinalGreenContrast,2594.391782541,2595.1912107079997,3,260406oj,001,2026-05-06_14h33.48.294,priming,,2026.1.3,60.0069756909023,2026-05-06 14h33.48.732247 -0700,
GR_Congruent_RedCue_RedProbe_Top,GreenGaborBoth.png,RedGaborBoth.png,GreenGaborBoth.png,RedGaborDisappearTop.png,Red.mp3,red,top,107,27,1,,,,1,27,107,0,2595.2066634579996,,,,,,,,,,,,,,,,top,,,,,,,,2595.1915102499997,2595.6070826659998,2595.607247375,2600.8568232079997,2600.8661217500003,2602.1067128329996,2602.1086347500004,2603.5572356659995,2603.559100916,2605.0242960409996,evensplit,FinalRedContrast,FinalGreenContrast,2605.0251174160003,2607.49088725,3,260406oj,001,2026-05-06_14h33.48.294,priming,,2026.1.3,60.0069756909023,2026-05-06 14h33.48.732247 -0700,
GR_Incongruent_GreenCue_RedProbe_Bottom,GreenGaborBoth.png,RedGaborBoth.png,GreenGaborBoth.png,RedGaborDisappearBottom.png,Green.mp3,green,bottom,108,28,1,,,,1,28,108,71,2607.506641833,,,,,,,,,,,,,,,,bottom,,,,,,,,2607.4938246660004,2608.223769708,2608.223941458,2613.4733989160004,2613.481679458,2614.723403125,2614.725221083,2615.374533208,2615.375299708,2616.607543958,evensplit,FinalRedContrast,FinalGreenContrast,2616.6089187079997,2617.4075527080004,3,260406oj,001,2026-05-06_14h33.48.294,priming,,2026.1.3,60.0069756909023,2026-05-06 14h33.48.732247 -0700,
GR_Incongruent_RedCue_GreenProbe_Top,GreenGaborBoth.png,RedGaborBoth.png,GreenGaborDisappearTop.png,RedGaborBoth.png,Red.mp3,red,top,109,29,1,,,,1,29,109,52,2617.423336875,,,,,,,,,,,,,,,,top,,,,,,,,2617.4092375829996,2617.890410625,2617.890588833,2623.1400295000003,2623.14957675,2624.3900412909998,2624.391845125,2626.9072771660003,2626.9086773749996,2628.657593875,evensplit,FinalRedContrast,FinalGreenContrast,2628.6588793749997,2629.874270958,2,260406oj,001,2026-05-06_14h33.48.294,priming,,2026.1.3,60.0069756909023,2026-05-06 14h33.48.732247 -0700,
GR_Congruent_RedCue_RedProbe_Top,GreenGaborBoth.png,RedGaborBoth.png,GreenGaborBoth.png,RedGaborDisappearTop.png,Red.mp3,red,top,110,30,1,,,,1,30,110,48,2629.8900701660004,,,,,,,,,,,,,,,,top,,,,,,,,2629.8745771249996,2630.40712825,2630.4073041250003,2635.656973291,2635.667244708,2636.906830041,2636.9086103749996,2639.640603791,2639.6424685,2640.4243320409996,allgreen,FinalRedContrast,FinalGreenContrast,2640.425787708,2641.341039958,3,260406oj,001,2026-05-06_14h33.48.294,priming,,2026.1.3,60.0069756909023,2026-05-06 14h33.48.732247 -0700,
RR_non_riv_catch_GreenCue_RedProbe_Bottom,Blank.png,RedGaborBoth.png,Blank.png,RedGaborDisappearBottom.png,Green.mp3,green,bottom,111,31,1,,,,1,31,111,75,2641.356789875,,,,,,,,,,,,,,,,bottom,,,,,,,,2641.3442301249997,2642.0238263749998,2642.0240037080002,2647.273622375,2647.2811690830003,2648.5235128329996,2648.5254874579996,2649.490599166,2649.4922874579997,2651.14098,allred,FinalRedContrast,FinalGreenContrast,2651.1423923330003,2652.624409,3,260406oj,001,2026-05-06_14h33.48.294,priming,,2026.1.3,60.0069756909023,2026-05-06 14h33.48.732247 -0700,
GR_Incongruent_RedCue_GreenProbe_Top,GreenGaborBoth.png,RedGaborBoth.png,GreenGaborDisappearTop.png,RedGaborBoth.png,Red.mp3,red,top,112,32,1,,,,1,32,112,4,2652.6400794580004,,,,,,,,,,,,,,,,top,,,,,,,,2652.626321083,2653.0738209580004,2653.073985375,2658.32355825,2658.3320435409996,2659.573546083,2659.575282916,2660.5073237079996,2660.5080982910004,2662.60772875,evensplit,FinalRedContrast,FinalGreenContrast,2662.608566041,2664.09103125,3,260406oj,001,2026-05-06_14h33.48.294,priming,,2026.1.3,60.0069756909023,2026-05-06 14h33.48.732247 -0700,
GR_Incongruent_GreenCue_RedProbe_Bottom,GreenGaborBoth.png,RedGaborBoth.png,GreenGaborBoth.png,RedGaborDisappearBottom.png,Green.mp3,green,bottom,113,33,1,,,,1,33,113,7,2664.106866958,,,,,,,,,,,,,,,,bottom,,,,,,,,2664.0938637910003,2664.4905583749996,2664.4907380410004,2669.740275708,2669.7501924999997,2670.9902044580003,2670.9920250409996,2671.7917150410003,2671.7920342079997,2673.1076730409995,mostlygreen,FinalRedContrast,FinalGreenContrast,2673.1089632499998,2674.9410017910004,3,260406oj,001,2026-05-06_14h33.48.294,priming,,2026.1.3,60.0069756909023,2026-05-06 14h33.48.732247 -0700,
GR_Incongruent_GreenCue_RedProbe_Top,GreenGaborBoth.png,RedGaborBoth.png,GreenGaborBoth.png,RedGaborDisappearTop.png,Green.mp3,green,top,114,34,1,,,,1,34,114,46,2674.9567825000004,,,,,,,,,,,,,,,,top,,,,,,,,2674.941162041,2675.4571618749997,2675.457333333,2680.7068922079998,2680.7156105000004,2681.956880416,2681.958588333,2683.407477375,2683.409107583,2686.0410353750003,evensplit,FinalRedContrast,FinalGreenContrast,2686.0425015,2687.2744257080003,3,260406oj,001,2026-05-06_14h33.48.294,priming,,2026.1.3,60.0069756909023,2026-05-06 14h33.48.732247 -0700,
GR_Incongruent_GreenCue_RedProbe_Top,GreenGaborBoth.png,RedGaborBoth.png,GreenGaborBoth.png,RedGaborDisappearTop.png,Green.mp3,green,top,115,35,1,,,,1,35,115,54,2687.2901195000004,,,,,,,,,,,,,,,,top,,,,,,,,2687.274683083,2688.357572041,2688.3577444579996,2693.6070760410003,2693.6172229579997,2694.856959125,2694.8588528749997,2696.0741337500003,2696.0759125000004,2698.591184375,allgreen,FinalRedContrast,FinalGreenContrast,2698.591992541,2700.6578343749998,3,260406oj,001,2026-05-06_14h33.48.294,priming,,2026.1.3,60.0069756909023,2026-05-06 14h33.48.732247 -0700,
GR_Incongruent_RedCue_GreenProbe_Bottom,GreenGaborBoth.png,RedGaborBoth.png,GreenGaborDisappearBottom.png,RedGaborBoth.png,Red.mp3,red,bottom,116,36,1,,,,1,36,116,61,2700.673577208,,,,,,,,,,,,,,,,bottom,,,,,,,,2700.660621833,2701.6906870000003,2701.690853291,2706.9403887500002,2706.9510851659998,2708.19034525,2708.19216925,2709.424127708,2709.425651916,2711.9912354159997,evensplit,FinalRedContrast,FinalGreenContrast,2711.992564166,2712.891141375,4,260406oj,001,2026-05-06_14h33.48.294,priming,,2026.1.3,60.0069756909023,2026-05-06 14h33.48.732247 -0700,
GR_Incongruent_GreenCue_RedProbe_Bottom,GreenGaborBoth.png,RedGaborBoth.png,GreenGaborBoth.png,RedGaborDisappearBottom.png,Green.mp3,green,bottom,117,37,1,,,,1,37,117,23,2712.9069288749997,,,,,,,,,,,,,,,,bottom,,,,,,,,2712.894038083,2713.507294375,2713.507460041,2718.7570852500003,2718.766127,2720.0070827500003,2720.008981958,2721.657455666,2721.659339125,2723.5244973749996,evensplit,FinalRedContrast,FinalGreenContrast,2723.525911791,2725.5244332909997,4,260406oj,001,2026-05-06_14h33.48.294,priming,,2026.1.3,60.0069756909023,2026-05-06 14h33.48.732247 -0700,
GR_Congruent_GreenCue_GreenProbe_Bottom,GreenGaborBoth.png,RedGaborBoth.png,GreenGaborDisappearBottom.png,RedGaborBoth.png,Green.mp3,green,bottom,118,38,1,,,,1,38,118,59,2725.5402430000004,,,,,,,,,,,,,,,,bottom,,,,,,,,2725.5245489999998,2726.140628708,2726.1407901660004,2731.390318166,2731.398877333,2732.640341958,2732.6422919999995,2733.507500375,2733.5086890000002,2735.9077851250004,allgreen,FinalRedContrast,FinalGreenContrast,2735.9091933749996,2738.307855541,3,260406oj,001,2026-05-06_14h33.48.294,priming,,2026.1.3,60.0069756909023,2026-05-06 14h33.48.732247 -0700,
GR_Congruent_GreenCue_GreenProbe_Top,GreenGaborBoth.png,RedGaborBoth.png,GreenGaborDisappearTop.png,RedGaborBoth.png,Green.mp3,green,top,119,39,1,,,,1,39,119,26,2738.323569583,,,,,,,,,,,,,,,,top,,,,,,,,2738.3081222499995,2738.657269208,2738.657436083,2743.9069716659997,2743.915500166,2745.1570893750004,2745.158845166,2747.040951833,2747.042352333,2750.074586291,allgreen,FinalRedContrast,FinalGreenContrast,2750.0755742909996,2751.6413001250003,4,260406oj,001,2026-05-06_14h33.48.294,priming,,2026.1.3,60.0069756909023,2026-05-06 14h33.48.732247 -0700,
GR_Incongruent_GreenCue_RedProbe_Bottom,GreenGaborBoth.png,RedGaborBoth.png,GreenGaborBoth.png,RedGaborDisappearBottom.png,Green.mp3,green,bottom,120,40,1,,,,1,40,120,31,2751.656994541,,,,,,,,,,,,,,,,bottom,,,,,,,,2751.6414524579995,2752.257552708,2752.257730083,2757.5071096660004,2757.5164838749997,2758.7572325,2758.758972666,2759.690864166,2759.692531875,2763.924609083,mostlygreen,FinalRedContrast,FinalGreenContrast,2763.9259093749997,2765.2579211250004,3,260406oj,001,2026-05-06_14h33.48.294,priming,,2026.1.3,60.0069756909023,2026-05-06 14h33.48.732247 -0700,
GR_Incongruent_RedCue_GreenProbe_Top,GreenGaborBoth.png,RedGaborBoth.png,GreenGaborDisappearTop.png,RedGaborBoth.png,Red.mp3,red,top,121,41,1,,,,1,41,121,20,2765.273699208,,,,,,,,,,,,,,,,top,,,,,,,,2765.2606307079996,2765.6741220000004,2765.674296333,2770.9238022500003,2770.932257208,2772.173768666,2772.176033666,2773.358076875,2773.3588298329996,2774.774590416,mostlygreen,FinalRedContrast,FinalGreenContrast,2774.7760242080003,2776.8579552499996,3,260406oj,001,2026-05-06_14h33.48.294,priming,,2026.1.3,60.0069756909023,2026-05-06 14h33.48.732247 -0700,
GR_Congruent_GreenCue_GreenProbe_Bottom,GreenGaborBoth.png,RedGaborBoth.png,GreenGaborDisappearBottom.png,RedGaborBoth.png,Green.mp3,green,bottom,122,42,1,,,,1,42,122,43,2776.8737686249997,,,,,,,,,,,,,,,,bottom,,,,,,,,2776.8607567500003,2777.3074728330002,2777.307652916,2782.5570905410004,2782.5659714579997,2783.8072204580003,2783.80917875,2784.740896833,2784.7427523329998,2787.3079309160003,allgreen,FinalRedContrast,FinalGreenContrast,2787.3095152079995,2788.8245933750004,3,260406oj,001,2026-05-06_14h33.48.294,priming,,2026.1.3,60.0069756909023,2026-05-06 14h33.48.732247 -0700,
GR_Congruent_GreenCue_GreenProbe_Top,GreenGaborBoth.png,RedGaborBoth.png,GreenGaborDisappearTop.png,RedGaborBoth.png,Green.mp3,green,top,123,43,1,,,,1,43,123,10,2788.840340375,,,,,,,,,,,,,,,,top,,,,,,,,2788.8247907080004,2817.9412969160003,2817.9417514999996,2823.1905618749997,2823.201074916,2824.4406070409996,2824.4431084999997,2826.0742947910003,2826.075862625,2827.1247995000003,allgreen,FinalRedContrast,FinalGreenContrast,2827.1254570829997,2828.3914475829997,3,260406oj,001,2026-05-06_14h33.48.294,priming,,2026.1.3,60.0069756909023,2026-05-06 14h33.48.732247 -0700,
GR_Congruent_RedCue_RedProbe_Top,GreenGaborBoth.png,RedGaborBoth.png,GreenGaborBoth.png,RedGaborDisappearTop.png,Red.mp3,red,top,124,44,1,,,,1,44,124,8,2828.4071552080004,,,,,,,,,,,,,,,,top,,,,,,,,2828.394055791,2828.7909404579996,2828.791126958,2834.040534666,2834.050415791,2835.290577875,2835.292493666,2836.9243746660004,2836.926240666,2839.5917155409998,mostlygreen,FinalRedContrast,FinalGreenContrast,2839.592390375,2841.5247126249997,3,260406oj,001,2026-05-06_14h33.48.294,priming,,2026.1.3,60.0069756909023,2026-05-06 14h33.48.732247 -0700,
GR_Congruent_GreenCue_GreenProbe_Top,GreenGaborBoth.png,RedGaborBoth.png,GreenGaborDisappearTop.png,RedGaborBoth.png,Green.mp3,green,top,125,45,1,,,,1,45,125,66,2841.54051325,,,,,,,,,,,,,,,,top,,,,,,,,2841.527698166,2841.907572708,2841.9077449160004,2847.157251625,2847.168258291,2848.407314416,2848.40856275,2849.1910694999997,2849.1925706250004,2851.3580951249996,mostlygreen,FinalRedContrast,FinalGreenContrast,2851.359195041,2853.6414140409997,3,260406oj,001,2026-05-06_14h33.48.294,priming,,2026.1.3,60.0069756909023,2026-05-06 14h33.48.732247 -0700,
GR_Incongruent_GreenCue_RedProbe_Top,GreenGaborBoth.png,RedGaborBoth.png,GreenGaborBoth.png,RedGaborDisappearTop.png,Green.mp3,green,top,126,46,1,,,,1,46,126,22,2853.657218583,,,,,,,,,,,,,,,,top,,,,,,,,2853.6415104159996,2854.4743133330003,2854.4744932080002,2859.7241599999998,2859.7324384579997,2860.9740631659997,2860.9757096249996,2862.5578191659997,2862.5596740829997,2863.7252925410003,evensplit,FinalRedContrast,FinalGreenContrast,2863.7257792500004,2865.7248479580003,4,260406oj,001,2026-05-06_14h33.48.294,priming,,2026.1.3,60.0069756909023,2026-05-06 14h33.48.732247 -0700,
GR_Congruent_GreenCue_GreenProbe_Top,GreenGaborBoth.png,RedGaborBoth.png,GreenGaborDisappearTop.png,RedGaborBoth.png,Green.mp3,green,top,127,47,1,,,,1,47,127,2,2865.7406816250004,,,,,,,,,,,,,,,,top,,,,,,,,2865.7249467909996,2866.2410734160003,2866.241234833,2871.490735833,2871.49846875,2872.7407252909998,2872.742278916,2873.591394708,2873.591706833,2875.525292583,allgreen,FinalRedContrast,FinalGreenContrast,2875.525656125,2876.4915902909997,4,260406oj,001,2026-05-06_14h33.48.294,priming,,2026.1.3,60.0069756909023,2026-05-06 14h33.48.732247 -0700,
GR_Congruent_GreenCue_GreenProbe_Top,GreenGaborBoth.png,RedGaborBoth.png,GreenGaborDisappearTop.png,RedGaborBoth.png,Green.mp3,green,top,128,48,1,,,,1,48,128,58,2876.5073576659997,,,,,,,,,,,,,,,,top,,,,,,,,2876.4916843749997,2877.4409780409997,2877.441144958,2882.6907964579996,2882.699036833,2883.9406923750003,2883.9424547500003,2885.8744919580004,2885.875976708,2887.2248954160004,allgreen,FinalRedContrast,FinalGreenContrast,2887.225979625,2888.808163208,4,260406oj,001,2026-05-06_14h33.48.294,priming,,2026.1.3,60.0069756909023,2026-05-06 14h33.48.732247 -0700,
GR_Incongruent_RedCue_GreenProbe_Bottom,GreenGaborBoth.png,RedGaborBoth.png,GreenGaborDisappearBottom.png,RedGaborBoth.png,Red.mp3,red,bottom,129,49,1,,,,1,49,129,37,2888.823922875,,,,,,,,,,,,,,,,bottom,,,,,,,,2888.811134541,2889.2243639159997,2889.2245302909996,2894.4742079159996,2894.4821829579996,2895.7240867910004,2895.7255776250004,2897.9244904999996,2897.9260890409996,2899.1917700410004,allgreen,FinalRedContrast,FinalGreenContrast,2899.1921951249997,2900.3587118329997,3,260406oj,001,2026-05-06_14h33.48.294,priming,,2026.1.3,60.0069756909023,2026-05-06 14h33.48.732247 -0700,
GR_Congruent_GreenCue_GreenProbe_Top,GreenGaborBoth.png,RedGaborBoth.png,GreenGaborDisappearTop.png,RedGaborBoth.png,Green.mp3,green,top,130,50,1,,,,1,50,130,34,2900.3740788329997,,,,,,,,,,,,,,,,top,,,,,,,,2900.3605898329997,2900.8910782499997,2900.8912466250003,2906.140699208,2906.148616458,2907.3907405,2907.3924374999997,2909.524695375,2909.5262627909997,2910.841733041,allgreen,FinalRedContrast,FinalGreenContrast,2910.8422397080003,2912.1249872079998,4,260406oj,001,2026-05-06_14h33.48.294,priming,,2026.1.3,60.0069756909023,2026-05-06 14h33.48.732247 -0700,
GR_Congruent_RedCue_RedProbe_Bottom,GreenGaborBoth.png,RedGaborBoth.png,GreenGaborBoth.png,RedGaborDisappearBottom.png,Red.mp3,red,bottom,131,51,1,,,,1,51,131,9,2912.1408258330002,,,,,,,,,,,,,,,,bottom,,,,,,,,2912.126649791,2912.524480291,2912.524646416,2917.774188458,2917.781895958,2919.024206708,2919.0258715,2920.7913363750004,2920.7923984999998,2923.891700583,mostlygreen,FinalRedContrast,FinalGreenContrast,2923.892779541,2930.208327458,3,260406oj,001,2026-05-06_14h33.48.294,priming,,2026.1.3,60.0069756909023,2026-05-06 14h33.48.732247 -0700,
GG_non_riv_catch_GreenCue_GreenProbe_Bottom,GreenGaborBoth.png,Blank.png,GreenGaborDisappearBottom.png,Blank.png,Green.mp3,green,bottom,132,52,1,,,,1,52,132,79,2930.2241317079997,,,,,,,,,,,,,,,,bottom,,,,,,,,2930.2101967910003,2930.791196583,2930.791364416,2936.0408789579997,2936.047742875,2937.2908988749996,2937.2925922080003,2938.557978666,2938.558645958,2939.5422153749996,allgreen,FinalRedContrast,FinalGreenContrast,2939.5425052500004,2941.342064916,3,260406oj,001,2026-05-06_14h33.48.294,priming,,2026.1.3,60.0069756909023,2026-05-06 14h33.48.732247 -0700,
GR_Congruent_RedCue_RedProbe_Top,GreenGaborBoth.png,RedGaborBoth.png,GreenGaborBoth.png,RedGaborDisappearTop.png,Red.mp3,red,top,133,53,1,,,,1,53,133,40,2941.357479958,,,,,,,,,,,,,,,,top,,,,,,,,2941.3437480410003,2942.141748416,2942.1419385830004,2947.390823625,2947.3981430410004,2948.640915791,2948.6426606659998,2949.4413185410003,2949.4429284999997,2951.6083563330003,evensplit,FinalRedContrast,FinalGreenContrast,2951.6090743329996,2952.9417308330003,3,260406oj,001,2026-05-06_14h33.48.294,priming,,2026.1.3,60.0069756909023,2026-05-06 14h33.48.732247 -0700,
GR_Congruent_GreenCue_GreenProbe_Top,GreenGaborBoth.png,RedGaborBoth.png,GreenGaborDisappearTop.png,RedGaborBoth.png,Green.mp3,green,top,134,54,1,,,,1,54,134,42,2952.9575415,,,,,,,,,,,,,,,,top,,,,,,,,2952.943637958,2953.5248509579997,2953.5250509999996,2958.774209583,2958.7807065409997,2960.024393875,2960.026157458,2962.991454958,2962.9928123749996,2964.9255973749996,evensplit,FinalRedContrast,FinalGreenContrast,2964.926443583,2967.608526541,3,260406oj,001,2026-05-06_14h33.48.294,priming,,2026.1.3,60.0069756909023,2026-05-06 14h33.48.732247 -0700,
GR_Congruent_RedCue_RedProbe_Bottom,GreenGaborBoth.png,RedGaborBoth.png,GreenGaborBoth.png,RedGaborDisappearBottom.png,Red.mp3,red,bottom,135,55,1,,,,1,55,135,65,2967.624227333,,,,,,,,,,,,,,,,bottom,,,,,,,,2967.610307,2969.8080825409997,2969.80824975,2975.057579583,2975.065187333,2976.30792175,2976.309780625,2977.2079867909997,2977.209746875,2978.8417681660003,evensplit,FinalRedContrast,FinalGreenContrast,2978.842761541,2980.0918144999996,3,260406oj,001,2026-05-06_14h33.48.294,priming,,2026.1.3,60.0069756909023,2026-05-06 14h33.48.732247 -0700,
GR_Congruent_RedCue_RedProbe_Top,GreenGaborBoth.png,RedGaborBoth.png,GreenGaborBoth.png,RedGaborDisappearTop.png,Red.mp3,red,top,136,56,1,,,,1,56,136,64,2980.107647125,,,,,,,,,,,,,,,,top,,,,,,,,2980.0919105000003,2980.541388208,2980.5415516659996,2985.790986166,2985.798542458,2987.041125416,2987.04265775,2989.4247379159997,2989.4262256250004,2992.4085676659997,evensplit,FinalRedContrast,FinalGreenContrast,2992.409178541,2993.558438166,4,260406oj,001,2026-05-06_14h33.48.294,priming,,2026.1.3,60.0069756909023,2026-05-06 14h33.48.732247 -0700,
GR_Incongruent_RedCue_GreenProbe_Top,GreenGaborBoth.png,RedGaborBoth.png,GreenGaborDisappearTop.png,RedGaborBoth.png,Red.mp3,red,top,137,57,1,,,,1,57,137,60,2993.574283625,,,,,,,,,,,,,,,,top,,,,,,,,2993.5585338749997,2994.224574291,2994.224740666,2999.474324166,2999.4808171249997,3000.724338666,3000.726185875,3002.5080887080003,3002.5094872500003,3005.6086164999997,evensplit,FinalRedContrast,FinalGreenContrast,3005.6091555000003,3009.2086729579996,3,260406oj,001,2026-05-06_14h33.48.294,priming,,2026.1.3,60.0069756909023,2026-05-06 14h33.48.732247 -0700,
GR_Incongruent_RedCue_GreenProbe_Bottom,GreenGaborBoth.png,RedGaborBoth.png,GreenGaborDisappearBottom.png,RedGaborBoth.png,Red.mp3,red,bottom,138,58,1,,,,1,58,138,13,3009.224278666,,,,,,,,,,,,,,,,bottom,,,,,,,,3009.208775125,3009.941461208,3009.941626416,3015.1911245829997,3015.1987177499996,3016.441123083,3016.4425929999998,3018.591526833,3018.5929345410004,3023.9918733329996,mostlygreen,FinalRedContrast,FinalGreenContrast,3023.9930937500003,3025.8586360830004,3,260406oj,001,2026-05-06_14h33.48.294,priming,,2026.1.3,60.0069756909023,2026-05-06 14h33.48.732247 -0700,
GR_Incongruent_GreenCue_RedProbe_Bottom,GreenGaborBoth.png,RedGaborBoth.png,GreenGaborBoth.png,RedGaborDisappearBottom.png,Green.mp3,green,bottom,139,59,1,,,,1,59,139,47,3025.8743995000004,,,,,,,,,,,,,,,,bottom,,,,,,,,3025.8605290409996,3026.3914922080003,3026.39166175,3031.641270458,3031.647790666,3032.8911563330003,3032.892968041,3033.908247583,3033.909723666,3036.5753005409997,evensplit,FinalRedContrast,FinalGreenContrast,3036.5764890829996,3037.542000333,4,260406oj,001,2026-05-06_14h33.48.294,priming,,2026.1.3,60.0069756909023,2026-05-06 14h33.48.732247 -0700,
GR_Congruent_RedCue_RedProbe_Bottom,GreenGaborBoth.png,RedGaborBoth.png,GreenGaborBoth.png,RedGaborDisappearBottom.png,Red.mp3,red,bottom,140,60,1,,,,1,60,140,25,3037.557845083,,,,,,,,,,,,,,,,bottom,,,,,,,,3037.543711958,3038.341515833,3038.341682958,3043.591053,3043.5975179159996,3044.8411493330004,3044.842465541,3045.72491625,3045.7267037499996,3046.5919592500004,allgreen,FinalRedContrast,FinalGreenContrast,3046.5931083329997,3049.225313,3,260406oj,001,2026-05-06_14h33.48.294,priming,,2026.1.3,60.0069756909023,2026-05-06 14h33.48.732247 -0700,
GR_Incongruent_RedCue_GreenProbe_Top,GreenGaborBoth.png,RedGaborBoth.png,GreenGaborDisappearTop.png,RedGaborBoth.png,Red.mp3,red,top,141,61,1,,,,1,61,141,12,3049.241121708,,,,,,,,,,,,,,,,top,,,,,,,,3049.225449333,3049.8082561660003,3049.8084259999996,3055.0577347500002,3055.064204833,3056.3082164999996,3056.30997475,3057.7087119999997,3057.7095495000003,3059.575374166,allgreen,FinalRedContrast,FinalGreenContrast,3059.576429541,3061.2420832079997,3,260406oj,001,2026-05-06_14h33.48.294,priming,,2026.1.3,60.0069756909023,2026-05-06 14h33.48.732247 -0700,
GR_Congruent_GreenCue_GreenProbe_Bottom,GreenGaborBoth.png,RedGaborBoth.png,GreenGaborDisappearBottom.png,RedGaborBoth.png,Green.mp3,green,bottom,142,62,1,,,,1,62,142,19,3061.2578769579995,,,,,,,,,,,,,,,,bottom,,,,,,,,3061.2439590000004,3062.141481791,3062.141651041,3067.3912524159996,3067.3976739580003,3068.641191541,3068.6429021659997,3069.325623791,3069.326168875,3073.658705791,allgreen,FinalRedContrast,FinalGreenContrast,3073.6599262910004,3075.0254262910003,3,260406oj,001,2026-05-06_14h33.48.294,priming,,2026.1.3,60.0069756909023,2026-05-06 14h33.48.732247 -0700,
GR_Congruent_GreenCue_GreenProbe_Bottom,GreenGaborBoth.png,RedGaborBoth.png,GreenGaborDisappearBottom.png,RedGaborBoth.png,Green.mp3,green,bottom,143,63,1,,,,1,63,143,3,3075.0412083749998,,,,,,,,,,,,,,,,bottom,,,,,,,,3075.0255285000003,3075.3085964579996,3075.3087818329996,3080.5578183750004,3080.5643357500003,3081.807858958,3081.8099326660003,3082.708677666,3082.7093133750004,3084.742108916,mostlygreen,FinalRedContrast,FinalGreenContrast,3084.743138041,3086.7754531660003,3,260406oj,001,2026-05-06_14h33.48.294,priming,,2026.1.3,60.0069756909023,2026-05-06 14h33.48.732247 -0700,
